phase,rating_attribute,rating_question,rating_question_details,rating_low,rating_high,stim_file,age,gender,RL_session_notice,RL_wrong_instruction,RL_wrong_instruction_n,feedback_txt_incorrect,number_str,practice_reps,session_name,stim_csv,trial_csv,condition,left_face,right_face,rewarded_resp,correct_resp,reward_prob,pre_rating_scales_loop.thisRepN,pre_rating_scales_loop.thisTrialN,pre_rating_scales_loop.thisN,pre_rating_scales_loop.thisIndex,pre_rating_stims_loop.thisRepN,pre_rating_stims_loop.thisTrialN,pre_rating_stims_loop.thisN,pre_rating_stims_loop.thisIndex,session_loop.thisRepN,session_loop.thisTrialN,session_loop.thisN,session_loop.thisIndex,practice_trials.thisRepN,practice_trials.thisTrialN,practice_trials.thisN,practice_trials.thisIndex,real_trials.thisRepN,real_trials.thisTrialN,real_trials.thisN,real_trials.thisIndex,post_rating_loop.thisRepN,post_rating_loop.thisTrialN,post_rating_loop.thisN,post_rating_loop.thisIndex,post_neutral_face_loop.thisRepN,post_neutral_face_loop.thisTrialN,post_neutral_face_loop.thisN,post_neutral_face_loop.thisIndex,pre_rating_scale.response,pre_rating_scale.rt,practice_response.keys,practice_response.corr,practice_response.rt,real_RL_response.keys,real_RL_response.corr,real_RL_response.rt,post_rating_scale.response,post_rating_scale.rt,participant,participant_gender,skip_practice,skip_ratings,date,expName,frameRate,
rating,valence,Hoe ervaar jij dit gezicht?,Je beoordeelt dit op een schaal van 'Zeer onprettig' tot 'Zeer prettig'.,Zeer onprettig,Zeer prettig,stims\neutral_stims\id-1367_gender-M_age-20.png,20,M,,,,,,,,,,,,,,,,0,0,0,1,0,0,0,43,,,,,,,,,,,,,,,,,,,,,-1,3.943,,,,,,,,,02,F,False,False,2018_Oct_19_1144,pilot_RL,119.98741298707412,
rating,valence,Hoe ervaar jij dit gezicht?,Je beoordeelt dit op een schaal van 'Zeer onprettig' tot 'Zeer prettig'.,Zeer onprettig,Zeer prettig,stims\neutral_stims\id-1315_gender-M_age-16.png,16,M,,,,,,,,,,,,,,,,0,0,0,1,0,1,1,24,,,,,,,,,,,,,,,,,,,,,-1,2.009,,,,,,,,,02,F,False,False,2018_Oct_19_1144,pilot_RL,119.98741298707412,
rating,valence,Hoe ervaar jij dit gezicht?,Je beoordeelt dit op een schaal van 'Zeer onprettig' tot 'Zeer prettig'.,Zeer onprettig,Zeer prettig,stims\neutral_stims\id-1360_gender-F_age-20.png,20,F,,,,,,,,,,,,,,,,0,0,0,1,0,2,2,38,,,,,,,,,,,,,,,,,,,,,0,2.259,,,,,,,,,02,F,False,False,2018_Oct_19_1144,pilot_RL,119.98741298707412,
rating,valence,Hoe ervaar jij dit gezicht?,Je beoordeelt dit op een schaal van 'Zeer onprettig' tot 'Zeer prettig'.,Zeer onprettig,Zeer prettig,stims\neutral_stims\id-1306_gender-F_age-21.png,21,F,,,,,,,,,,,,,,,,0,0,0,1,0,3,3,19,,,,,,,,,,,,,,,,,,,,,0,1.493,,,,,,,,,02,F,False,False,2018_Oct_19_1144,pilot_RL,119.98741298707412,
rating,valence,Hoe ervaar jij dit gezicht?,Je beoordeelt dit op een schaal van 'Zeer onprettig' tot 'Zeer prettig'.,Zeer onprettig,Zeer prettig,stims\neutral_stims\id-1311_gender-F_age-22.png,22,F,,,,,,,,,,,,,,,,0,0,0,1,0,4,4,23,,,,,,,,,,,,,,,,,,,,,1,1.284,,,,,,,,,02,F,False,False,2018_Oct_19_1144,pilot_RL,119.98741298707412,
rating,valence,Hoe ervaar jij dit gezicht?,Je beoordeelt dit op een schaal van 'Zeer onprettig' tot 'Zeer prettig'.,Zeer onprettig,Zeer prettig,stims\neutral_stims\id-1280_gender-M_age-18.png,18,M,,,,,,,,,,,,,,,,0,0,0,1,0,5,5,8,,,,,,,,,,,,,,,,,,,,,-2,2.751,,,,,,,,,02,F,False,False,2018_Oct_19_1144,pilot_RL,119.98741298707412,
rating,valence,Hoe ervaar jij dit gezicht?,Je beoordeelt dit op een schaal van 'Zeer onprettig' tot 'Zeer prettig'.,Zeer onprettig,Zeer prettig,stims\neutral_stims\id-1378_gender-F_age-19.png,19,F,,,,,,,,,,,,,,,,0,0,0,1,0,6,6,48,,,,,,,,,,,,,,,,,,,,,1,8.719,,,,,,,,,02,F,False,False,2018_Oct_19_1144,pilot_RL,119.98741298707412,
rating,valence,Hoe ervaar jij dit gezicht?,Je beoordeelt dit op een schaal van 'Zeer onprettig' tot 'Zeer prettig'.,Zeer onprettig,Zeer prettig,stims\neutral_stims\id-1260_gender-F_age-22.png,22,F,,,,,,,,,,,,,,,,0,0,0,1,0,7,7,0,,,,,,,,,,,,,,,,,,,,,0,1.984,,,,,,,,,02,F,False,False,2018_Oct_19_1144,pilot_RL,119.98741298707412,
rating,valence,Hoe ervaar jij dit gezicht?,Je beoordeelt dit op een schaal van 'Zeer onprettig' tot 'Zeer prettig'.,Zeer onprettig,Zeer prettig,stims\neutral_stims\id-1307_gender-F_age-22.png,22,F,,,,,,,,,,,,,,,,0,0,0,1,0,8,8,20,,,,,,,,,,,,,,,,,,,,,0,1.868,,,,,,,,,02,F,False,False,2018_Oct_19_1144,pilot_RL,119.98741298707412,
rating,valence,Hoe ervaar jij dit gezicht?,Je beoordeelt dit op een schaal van 'Zeer onprettig' tot 'Zeer prettig'.,Zeer onprettig,Zeer prettig,stims\neutral_stims\id-1291_gender-F_age-24.png,24,F,,,,,,,,,,,,,,,,0,0,0,1,0,9,9,12,,,,,,,,,,,,,,,,,,,,,0,1.618,,,,,,,,,02,F,False,False,2018_Oct_19_1144,pilot_RL,119.98741298707412,
rating,valence,Hoe ervaar jij dit gezicht?,Je beoordeelt dit op een schaal van 'Zeer onprettig' tot 'Zeer prettig'.,Zeer onprettig,Zeer prettig,stims\neutral_stims\id-1264_gender-F_age-26.png,26,F,,,,,,,,,,,,,,,,0,0,0,1,0,10,10,1,,,,,,,,,,,,,,,,,,,,,0,2.101,,,,,,,,,02,F,False,False,2018_Oct_19_1144,pilot_RL,119.98741298707412,
rating,valence,Hoe ervaar jij dit gezicht?,Je beoordeelt dit op een schaal van 'Zeer onprettig' tot 'Zeer prettig'.,Zeer onprettig,Zeer prettig,stims\neutral_stims\id-1345_gender-M_age-18.png,18,M,,,,,,,,,,,,,,,,0,0,0,1,0,11,11,32,,,,,,,,,,,,,,,,,,,,,0,1.326,,,,,,,,,02,F,False,False,2018_Oct_19_1144,pilot_RL,119.98741298707412,
rating,valence,Hoe ervaar jij dit gezicht?,Je beoordeelt dit op een schaal van 'Zeer onprettig' tot 'Zeer prettig'.,Zeer onprettig,Zeer prettig,stims\neutral_stims\id-1370_gender-M_age-19.png,19,M,,,,,,,,,,,,,,,,0,0,0,1,0,12,12,44,,,,,,,,,,,,,,,,,,,,,1,2.001,,,,,,,,,02,F,False,False,2018_Oct_19_1144,pilot_RL,119.98741298707412,
rating,valence,Hoe ervaar jij dit gezicht?,Je beoordeelt dit op een schaal van 'Zeer onprettig' tot 'Zeer prettig'.,Zeer onprettig,Zeer prettig,stims\neutral_stims\id-1366_gender-F_age-24.png,24,F,,,,,,,,,,,,,,,,0,0,0,1,0,13,13,42,,,,,,,,,,,,,,,,,,,,,0,1.759,,,,,,,,,02,F,False,False,2018_Oct_19_1144,pilot_RL,119.98741298707412,
rating,valence,Hoe ervaar jij dit gezicht?,Je beoordeelt dit op een schaal van 'Zeer onprettig' tot 'Zeer prettig'.,Zeer onprettig,Zeer prettig,stims\neutral_stims\id-1294_gender-F_age-26.png,26,F,,,,,,,,,,,,,,,,0,0,0,1,0,14,14,14,,,,,,,,,,,,,,,,,,,,,0,0.851,,,,,,,,,02,F,False,False,2018_Oct_19_1144,pilot_RL,119.98741298707412,
rating,valence,Hoe ervaar jij dit gezicht?,Je beoordeelt dit op een schaal van 'Zeer onprettig' tot 'Zeer prettig'.,Zeer onprettig,Zeer prettig,stims\neutral_stims\id-1297_gender-F_age-22.png,22,F,,,,,,,,,,,,,,,,0,0,0,1,0,15,15,17,,,,,,,,,,,,,,,,,,,,,-1,1.793,,,,,,,,,02,F,False,False,2018_Oct_19_1144,pilot_RL,119.98741298707412,
rating,valence,Hoe ervaar jij dit gezicht?,Je beoordeelt dit op een schaal van 'Zeer onprettig' tot 'Zeer prettig'.,Zeer onprettig,Zeer prettig,stims\neutral_stims\id-1339_gender-F_age-30.png,30,F,,,,,,,,,,,,,,,,0,0,0,1,0,16,16,28,,,,,,,,,,,,,,,,,,,,,0,1.176,,,,,,,,,02,F,False,False,2018_Oct_19_1144,pilot_RL,119.98741298707412,
rating,valence,Hoe ervaar jij dit gezicht?,Je beoordeelt dit op een schaal van 'Zeer onprettig' tot 'Zeer prettig'.,Zeer onprettig,Zeer prettig,stims\neutral_stims\id-1355_gender-F_age-19.png,19,F,,,,,,,,,,,,,,,,0,0,0,1,0,17,17,35,,,,,,,,,,,,,,,,,,,,,0,1.134,,,,,,,,,02,F,False,False,2018_Oct_19_1144,pilot_RL,119.98741298707412,
rating,valence,Hoe ervaar jij dit gezicht?,Je beoordeelt dit op een schaal van 'Zeer onprettig' tot 'Zeer prettig'.,Zeer onprettig,Zeer prettig,stims\neutral_stims\id-1373_gender-F_age-30.png,30,F,,,,,,,,,,,,,,,,0,0,0,1,0,18,18,45,,,,,,,,,,,,,,,,,,,,,0,1.051,,,,,,,,,02,F,False,False,2018_Oct_19_1144,pilot_RL,119.98741298707412,
rating,valence,Hoe ervaar jij dit gezicht?,Je beoordeelt dit op een schaal van 'Zeer onprettig' tot 'Zeer prettig'.,Zeer onprettig,Zeer prettig,stims\neutral_stims\id-1362_gender-F_age-24.png,24,F,,,,,,,,,,,,,,,,0,0,0,1,0,19,19,40,,,,,,,,,,,,,,,,,,,,,0,1.251,,,,,,,,,02,F,False,False,2018_Oct_19_1144,pilot_RL,119.98741298707412,
rating,valence,Hoe ervaar jij dit gezicht?,Je beoordeelt dit op een schaal van 'Zeer onprettig' tot 'Zeer prettig'.,Zeer onprettig,Zeer prettig,stims\neutral_stims\id-1274_gender-F_age-33.png,33,F,,,,,,,,,,,,,,,,0,0,0,1,0,20,20,6,,,,,,,,,,,,,,,,,,,,,0,0.934,,,,,,,,,02,F,False,False,2018_Oct_19_1144,pilot_RL,119.98741298707412,
rating,valence,Hoe ervaar jij dit gezicht?,Je beoordeelt dit op een schaal van 'Zeer onprettig' tot 'Zeer prettig'.,Zeer onprettig,Zeer prettig,stims\neutral_stims\id-1358_gender-F_age-32.png,32,F,,,,,,,,,,,,,,,,0,0,0,1,0,21,21,37,,,,,,,,,,,,,,,,,,,,,0,1.176,,,,,,,,,02,F,False,False,2018_Oct_19_1144,pilot_RL,119.98741298707412,
rating,valence,Hoe ervaar jij dit gezicht?,Je beoordeelt dit op een schaal van 'Zeer onprettig' tot 'Zeer prettig'.,Zeer onprettig,Zeer prettig,stims\neutral_stims\id-1269_gender-F_age-23.png,23,F,,,,,,,,,,,,,,,,0,0,0,1,0,22,22,3,,,,,,,,,,,,,,,,,,,,,0,1.368,,,,,,,,,02,F,False,False,2018_Oct_19_1144,pilot_RL,119.98741298707412,
rating,valence,Hoe ervaar jij dit gezicht?,Je beoordeelt dit op een schaal van 'Zeer onprettig' tot 'Zeer prettig'.,Zeer onprettig,Zeer prettig,stims\neutral_stims\id-1363_gender-M_age-19.png,19,M,,,,,,,,,,,,,,,,0,0,0,1,0,23,23,41,,,,,,,,,,,,,,,,,,,,,0,1.093,,,,,,,,,02,F,False,False,2018_Oct_19_1144,pilot_RL,119.98741298707412,
rating,valence,Hoe ervaar jij dit gezicht?,Je beoordeelt dit op een schaal van 'Zeer onprettig' tot 'Zeer prettig'.,Zeer onprettig,Zeer prettig,stims\neutral_stims\id-1361_gender-F_age-19.png,19,F,,,,,,,,,,,,,,,,0,0,0,1,0,24,24,39,,,,,,,,,,,,,,,,,,,,,0,1.293,,,,,,,,,02,F,False,False,2018_Oct_19_1144,pilot_RL,119.98741298707412,
rating,valence,Hoe ervaar jij dit gezicht?,Je beoordeelt dit op een schaal van 'Zeer onprettig' tot 'Zeer prettig'.,Zeer onprettig,Zeer prettig,stims\neutral_stims\id-1270_gender-F_age-30.png,30,F,,,,,,,,,,,,,,,,0,0,0,1,0,25,25,4,,,,,,,,,,,,,,,,,,,,,0,1.426,,,,,,,,,02,F,False,False,2018_Oct_19_1144,pilot_RL,119.98741298707412,
rating,valence,Hoe ervaar jij dit gezicht?,Je beoordeelt dit op een schaal van 'Zeer onprettig' tot 'Zeer prettig'.,Zeer onprettig,Zeer prettig,stims\neutral_stims\id-1310_gender-F_age-28.png,28,F,,,,,,,,,,,,,,,,0,0,0,1,0,26,26,22,,,,,,,,,,,,,,,,,,,,,-1,2.793,,,,,,,,,02,F,False,False,2018_Oct_19_1144,pilot_RL,119.98741298707412,
rating,valence,Hoe ervaar jij dit gezicht?,Je beoordeelt dit op een schaal van 'Zeer onprettig' tot 'Zeer prettig'.,Zeer onprettig,Zeer prettig,stims\neutral_stims\id-1318_gender-M_age-35.png,35,M,,,,,,,,,,,,,,,,0,0,0,1,0,27,27,25,,,,,,,,,,,,,,,,,,,,,0,2.101,,,,,,,,,02,F,False,False,2018_Oct_19_1144,pilot_RL,119.98741298707412,
rating,valence,Hoe ervaar jij dit gezicht?,Je beoordeelt dit op een schaal van 'Zeer onprettig' tot 'Zeer prettig'.,Zeer onprettig,Zeer prettig,stims\neutral_stims\id-1341_gender-M_age-19.png,19,M,,,,,,,,,,,,,,,,0,0,0,1,0,28,28,29,,,,,,,,,,,,,,,,,,,,,1,1.793,,,,,,,,,02,F,False,False,2018_Oct_19_1144,pilot_RL,119.98741298707412,
rating,valence,Hoe ervaar jij dit gezicht?,Je beoordeelt dit op een schaal van 'Zeer onprettig' tot 'Zeer prettig'.,Zeer onprettig,Zeer prettig,stims\neutral_stims\id-1290_gender-F_age-23.png,23,F,,,,,,,,,,,,,,,,0,0,0,1,0,29,29,11,,,,,,,,,,,,,,,,,,,,,0,0.951,,,,,,,,,02,F,False,False,2018_Oct_19_1144,pilot_RL,119.98741298707412,
rating,valence,Hoe ervaar jij dit gezicht?,Je beoordeelt dit op een schaal van 'Zeer onprettig' tot 'Zeer prettig'.,Zeer onprettig,Zeer prettig,stims\neutral_stims\id-1376_gender-F_age-19.png,19,F,,,,,,,,,,,,,,,,0,0,0,1,0,30,30,46,,,,,,,,,,,,,,,,,,,,,1,1.001,,,,,,,,,02,F,False,False,2018_Oct_19_1144,pilot_RL,119.98741298707412,
rating,valence,Hoe ervaar jij dit gezicht?,Je beoordeelt dit op een schaal van 'Zeer onprettig' tot 'Zeer prettig'.,Zeer onprettig,Zeer prettig,stims\neutral_stims\id-1377_gender-M_age-20.png,20,M,,,,,,,,,,,,,,,,0,0,0,1,0,31,31,47,,,,,,,,,,,,,,,,,,,,,1,1.259,,,,,,,,,02,F,False,False,2018_Oct_19_1144,pilot_RL,119.98741298707412,
rating,valence,Hoe ervaar jij dit gezicht?,Je beoordeelt dit op een schaal van 'Zeer onprettig' tot 'Zeer prettig'.,Zeer onprettig,Zeer prettig,stims\neutral_stims\id-1323_gender-F_age-23.png,23,F,,,,,,,,,,,,,,,,0,0,0,1,0,32,32,26,,,,,,,,,,,,,,,,,,,,,0,3.085,,,,,,,,,02,F,False,False,2018_Oct_19_1144,pilot_RL,119.98741298707412,
rating,valence,Hoe ervaar jij dit gezicht?,Je beoordeelt dit op een schaal van 'Zeer onprettig' tot 'Zeer prettig'.,Zeer onprettig,Zeer prettig,stims\neutral_stims\id-1344_gender-M_age-25.png,25,M,,,,,,,,,,,,,,,,0,0,0,1,0,33,33,31,,,,,,,,,,,,,,,,,,,,,0,4.11,,,,,,,,,02,F,False,False,2018_Oct_19_1144,pilot_RL,119.98741298707412,
rating,valence,Hoe ervaar jij dit gezicht?,Je beoordeelt dit op een schaal van 'Zeer onprettig' tot 'Zeer prettig'.,Zeer onprettig,Zeer prettig,stims\neutral_stims\id-1380_gender-F_age-21.png,21,F,,,,,,,,,,,,,,,,0,0,0,1,0,34,34,49,,,,,,,,,,,,,,,,,,,,,0,1.718,,,,,,,,,02,F,False,False,2018_Oct_19_1144,pilot_RL,119.98741298707412,
rating,valence,Hoe ervaar jij dit gezicht?,Je beoordeelt dit op een schaal van 'Zeer onprettig' tot 'Zeer prettig'.,Zeer onprettig,Zeer prettig,stims\neutral_stims\id-1309_gender-M_age-22.png,22,M,,,,,,,,,,,,,,,,0,0,0,1,0,35,35,21,,,,,,,,,,,,,,,,,,,,,0,1.684,,,,,,,,,02,F,False,False,2018_Oct_19_1144,pilot_RL,119.98741298707412,
rating,valence,Hoe ervaar jij dit gezicht?,Je beoordeelt dit op een schaal van 'Zeer onprettig' tot 'Zeer prettig'.,Zeer onprettig,Zeer prettig,stims\neutral_stims\id-1354_gender-F_age-23.png,23,F,,,,,,,,,,,,,,,,0,0,0,1,0,36,36,34,,,,,,,,,,,,,,,,,,,,,0,0.751,,,,,,,,,02,F,False,False,2018_Oct_19_1144,pilot_RL,119.98741298707412,
rating,valence,Hoe ervaar jij dit gezicht?,Je beoordeelt dit op een schaal van 'Zeer onprettig' tot 'Zeer prettig'.,Zeer onprettig,Zeer prettig,stims\neutral_stims\id-1347_gender-F_age-27.png,27,F,,,,,,,,,,,,,,,,0,0,0,1,0,37,37,33,,,,,,,,,,,,,,,,,,,,,0,0.843,,,,,,,,,02,F,False,False,2018_Oct_19_1144,pilot_RL,119.98741298707412,
rating,valence,Hoe ervaar jij dit gezicht?,Je beoordeelt dit op een schaal van 'Zeer onprettig' tot 'Zeer prettig'.,Zeer onprettig,Zeer prettig,stims\neutral_stims\id-1289_gender-F_age-20.png,20,F,,,,,,,,,,,,,,,,0,0,0,1,0,38,38,10,,,,,,,,,,,,,,,,,,,,,0,0.684,,,,,,,,,02,F,False,False,2018_Oct_19_1144,pilot_RL,119.98741298707412,
rating,valence,Hoe ervaar jij dit gezicht?,Je beoordeelt dit op een schaal van 'Zeer onprettig' tot 'Zeer prettig'.,Zeer onprettig,Zeer prettig,stims\neutral_stims\id-1279_gender-F_age-19.png,19,F,,,,,,,,,,,,,,,,0,0,0,1,0,39,39,7,,,,,,,,,,,,,,,,,,,,,0,0.859,,,,,,,,,02,F,False,False,2018_Oct_19_1144,pilot_RL,119.98741298707412,
rating,valence,Hoe ervaar jij dit gezicht?,Je beoordeelt dit op een schaal van 'Zeer onprettig' tot 'Zeer prettig'.,Zeer onprettig,Zeer prettig,stims\neutral_stims\id-1273_gender-F_age-20.png,20,F,,,,,,,,,,,,,,,,0,0,0,1,0,40,40,5,,,,,,,,,,,,,,,,,,,,,0,0.826,,,,,,,,,02,F,False,False,2018_Oct_19_1144,pilot_RL,119.98741298707412,
rating,valence,Hoe ervaar jij dit gezicht?,Je beoordeelt dit op een schaal van 'Zeer onprettig' tot 'Zeer prettig'.,Zeer onprettig,Zeer prettig,stims\neutral_stims\id-1293_gender-F_age-31.png,31,F,,,,,,,,,,,,,,,,0,0,0,1,0,41,41,13,,,,,,,,,,,,,,,,,,,,,0,0.884,,,,,,,,,02,F,False,False,2018_Oct_19_1144,pilot_RL,119.98741298707412,
rating,valence,Hoe ervaar jij dit gezicht?,Je beoordeelt dit op een schaal van 'Zeer onprettig' tot 'Zeer prettig'.,Zeer onprettig,Zeer prettig,stims\neutral_stims\id-1266_gender-M_age-21.png,21,M,,,,,,,,,,,,,,,,0,0,0,1,0,42,42,2,,,,,,,,,,,,,,,,,,,,,0,0.901,,,,,,,,,02,F,False,False,2018_Oct_19_1144,pilot_RL,119.98741298707412,
rating,valence,Hoe ervaar jij dit gezicht?,Je beoordeelt dit op een schaal van 'Zeer onprettig' tot 'Zeer prettig'.,Zeer onprettig,Zeer prettig,stims\neutral_stims\id-1342_gender-M_age-19.png,19,M,,,,,,,,,,,,,,,,0,0,0,1,0,43,43,30,,,,,,,,,,,,,,,,,,,,,0,0.951,,,,,,,,,02,F,False,False,2018_Oct_19_1144,pilot_RL,119.98741298707412,
rating,valence,Hoe ervaar jij dit gezicht?,Je beoordeelt dit op een schaal van 'Zeer onprettig' tot 'Zeer prettig'.,Zeer onprettig,Zeer prettig,stims\neutral_stims\id-1296_gender-F_age-23.png,23,F,,,,,,,,,,,,,,,,0,0,0,1,0,44,44,16,,,,,,,,,,,,,,,,,,,,,0,0.984,,,,,,,,,02,F,False,False,2018_Oct_19_1144,pilot_RL,119.98741298707412,
rating,valence,Hoe ervaar jij dit gezicht?,Je beoordeelt dit op een schaal van 'Zeer onprettig' tot 'Zeer prettig'.,Zeer onprettig,Zeer prettig,stims\neutral_stims\id-1285_gender-F_age-19.png,19,F,,,,,,,,,,,,,,,,0,0,0,1,0,45,45,9,,,,,,,,,,,,,,,,,,,,,0,1.509,,,,,,,,,02,F,False,False,2018_Oct_19_1144,pilot_RL,119.98741298707412,
rating,valence,Hoe ervaar jij dit gezicht?,Je beoordeelt dit op een schaal van 'Zeer onprettig' tot 'Zeer prettig'.,Zeer onprettig,Zeer prettig,stims\neutral_stims\id-1335_gender-M_age-23.png,23,M,,,,,,,,,,,,,,,,0,0,0,1,0,46,46,27,,,,,,,,,,,,,,,,,,,,,1,1.251,,,,,,,,,02,F,False,False,2018_Oct_19_1144,pilot_RL,119.98741298707412,
rating,valence,Hoe ervaar jij dit gezicht?,Je beoordeelt dit op een schaal van 'Zeer onprettig' tot 'Zeer prettig'.,Zeer onprettig,Zeer prettig,stims\neutral_stims\id-1302_gender-F_age-30.png,30,F,,,,,,,,,,,,,,,,0,0,0,1,0,47,47,18,,,,,,,,,,,,,,,,,,,,,0,1.309,,,,,,,,,02,F,False,False,2018_Oct_19_1144,pilot_RL,119.98741298707412,
rating,valence,Hoe ervaar jij dit gezicht?,Je beoordeelt dit op een schaal van 'Zeer onprettig' tot 'Zeer prettig'.,Zeer onprettig,Zeer prettig,stims\neutral_stims\id-1356_gender-F_age-20.png,20,F,,,,,,,,,,,,,,,,0,0,0,1,0,48,48,36,,,,,,,,,,,,,,,,,,,,,0,1.334,,,,,,,,,02,F,False,False,2018_Oct_19_1144,pilot_RL,119.98741298707412,
rating,valence,Hoe ervaar jij dit gezicht?,Je beoordeelt dit op een schaal van 'Zeer onprettig' tot 'Zeer prettig'.,Zeer onprettig,Zeer prettig,stims\neutral_stims\id-1295_gender-F_age-26.png,26,F,,,,,,,,,,,,,,,,0,0,0,1,0,49,49,15,,,,,,,,,,,,,,,,,,,,,0,0.659,,,,,,,,,02,F,False,False,2018_Oct_19_1144,pilot_RL,119.98741298707412,
rating,valence,Hoe ervaar jij dit gezicht?,Je beoordeelt dit op een schaal van 'Zeer onprettig' tot 'Zeer prettig'.,Zeer onprettig,Zeer prettig,,,,,,,,,,,,,,,,,,,0,0,0,1,,,,,,,,,,,,,,,,,,,,,,,,,,,,,,,,,,,02,F,False,False,2018_Oct_19_1144,pilot_RL,119.98741298707412,
rating,attractiveness,Hoe aantrekkelijk vind jij dit gezicht?,Je beoordeelt dit op een schaal van 'Zeer onaantrekkelijk' tot 'Zeer aantrekkelijk'.,Zeer onaantrekkelijk,Zeer aantrekkelijk,stims\neutral_stims\id-1339_gender-F_age-30.png,30,F,,,,,,,,,,,,,,,,0,1,1,2,0,0,0,28,,,,,,,,,,,,,,,,,,,,,-1,4.751,,,,,,,,,02,F,False,False,2018_Oct_19_1144,pilot_RL,119.98741298707412,
rating,attractiveness,Hoe aantrekkelijk vind jij dit gezicht?,Je beoordeelt dit op een schaal van 'Zeer onaantrekkelijk' tot 'Zeer aantrekkelijk'.,Zeer onaantrekkelijk,Zeer aantrekkelijk,stims\neutral_stims\id-1311_gender-F_age-22.png,22,F,,,,,,,,,,,,,,,,0,1,1,2,0,1,1,23,,,,,,,,,,,,,,,,,,,,,0,2.043,,,,,,,,,02,F,False,False,2018_Oct_19_1144,pilot_RL,119.98741298707412,
rating,attractiveness,Hoe aantrekkelijk vind jij dit gezicht?,Je beoordeelt dit op een schaal van 'Zeer onaantrekkelijk' tot 'Zeer aantrekkelijk'.,Zeer onaantrekkelijk,Zeer aantrekkelijk,stims\neutral_stims\id-1377_gender-M_age-20.png,20,M,,,,,,,,,,,,,,,,0,1,1,2,0,2,2,47,,,,,,,,,,,,,,,,,,,,,0,3.868,,,,,,,,,02,F,False,False,2018_Oct_19_1144,pilot_RL,119.98741298707412,
rating,attractiveness,Hoe aantrekkelijk vind jij dit gezicht?,Je beoordeelt dit op een schaal van 'Zeer onaantrekkelijk' tot 'Zeer aantrekkelijk'.,Zeer onaantrekkelijk,Zeer aantrekkelijk,stims\neutral_stims\id-1273_gender-F_age-20.png,20,F,,,,,,,,,,,,,,,,0,1,1,2,0,3,3,5,,,,,,,,,,,,,,,,,,,,,0,1.809,,,,,,,,,02,F,False,False,2018_Oct_19_1144,pilot_RL,119.98741298707412,
rating,attractiveness,Hoe aantrekkelijk vind jij dit gezicht?,Je beoordeelt dit op een schaal van 'Zeer onaantrekkelijk' tot 'Zeer aantrekkelijk'.,Zeer onaantrekkelijk,Zeer aantrekkelijk,stims\neutral_stims\id-1361_gender-F_age-19.png,19,F,,,,,,,,,,,,,,,,0,1,1,2,0,4,4,39,,,,,,,,,,,,,,,,,,,,,-2,2.885,,,,,,,,,02,F,False,False,2018_Oct_19_1144,pilot_RL,119.98741298707412,
rating,attractiveness,Hoe aantrekkelijk vind jij dit gezicht?,Je beoordeelt dit op een schaal van 'Zeer onaantrekkelijk' tot 'Zeer aantrekkelijk'.,Zeer onaantrekkelijk,Zeer aantrekkelijk,stims\neutral_stims\id-1280_gender-M_age-18.png,18,M,,,,,,,,,,,,,,,,0,1,1,2,0,5,5,8,,,,,,,,,,,,,,,,,,,,,-2,1.909,,,,,,,,,02,F,False,False,2018_Oct_19_1144,pilot_RL,119.98741298707412,
rating,attractiveness,Hoe aantrekkelijk vind jij dit gezicht?,Je beoordeelt dit op een schaal van 'Zeer onaantrekkelijk' tot 'Zeer aantrekkelijk'.,Zeer onaantrekkelijk,Zeer aantrekkelijk,stims\neutral_stims\id-1376_gender-F_age-19.png,19,F,,,,,,,,,,,,,,,,0,1,1,2,0,6,6,46,,,,,,,,,,,,,,,,,,,,,1,3.143,,,,,,,,,02,F,False,False,2018_Oct_19_1144,pilot_RL,119.98741298707412,
rating,attractiveness,Hoe aantrekkelijk vind jij dit gezicht?,Je beoordeelt dit op een schaal van 'Zeer onaantrekkelijk' tot 'Zeer aantrekkelijk'.,Zeer onaantrekkelijk,Zeer aantrekkelijk,stims\neutral_stims\id-1341_gender-M_age-19.png,19,M,,,,,,,,,,,,,,,,0,1,1,2,0,7,7,29,,,,,,,,,,,,,,,,,,,,,-1,1.343,,,,,,,,,02,F,False,False,2018_Oct_19_1144,pilot_RL,119.98741298707412,
rating,attractiveness,Hoe aantrekkelijk vind jij dit gezicht?,Je beoordeelt dit op een schaal van 'Zeer onaantrekkelijk' tot 'Zeer aantrekkelijk'.,Zeer onaantrekkelijk,Zeer aantrekkelijk,stims\neutral_stims\id-1297_gender-F_age-22.png,22,F,,,,,,,,,,,,,,,,0,1,1,2,0,8,8,17,,,,,,,,,,,,,,,,,,,,,-2,2.484,,,,,,,,,02,F,False,False,2018_Oct_19_1144,pilot_RL,119.98741298707412,
rating,attractiveness,Hoe aantrekkelijk vind jij dit gezicht?,Je beoordeelt dit op een schaal van 'Zeer onaantrekkelijk' tot 'Zeer aantrekkelijk'.,Zeer onaantrekkelijk,Zeer aantrekkelijk,stims\neutral_stims\id-1318_gender-M_age-35.png,35,M,,,,,,,,,,,,,,,,0,1,1,2,0,9,9,25,,,,,,,,,,,,,,,,,,,,,-2,2.068,,,,,,,,,02,F,False,False,2018_Oct_19_1144,pilot_RL,119.98741298707412,
rating,attractiveness,Hoe aantrekkelijk vind jij dit gezicht?,Je beoordeelt dit op een schaal van 'Zeer onaantrekkelijk' tot 'Zeer aantrekkelijk'.,Zeer onaantrekkelijk,Zeer aantrekkelijk,stims\neutral_stims\id-1370_gender-M_age-19.png,19,M,,,,,,,,,,,,,,,,0,1,1,2,0,10,10,44,,,,,,,,,,,,,,,,,,,,,0,3.535,,,,,,,,,02,F,False,False,2018_Oct_19_1144,pilot_RL,119.98741298707412,
rating,attractiveness,Hoe aantrekkelijk vind jij dit gezicht?,Je beoordeelt dit op een schaal van 'Zeer onaantrekkelijk' tot 'Zeer aantrekkelijk'.,Zeer onaantrekkelijk,Zeer aantrekkelijk,stims\neutral_stims\id-1323_gender-F_age-23.png,23,F,,,,,,,,,,,,,,,,0,1,1,2,0,11,11,26,,,,,,,,,,,,,,,,,,,,,-3,2.409,,,,,,,,,02,F,False,False,2018_Oct_19_1144,pilot_RL,119.98741298707412,
rating,attractiveness,Hoe aantrekkelijk vind jij dit gezicht?,Je beoordeelt dit op een schaal van 'Zeer onaantrekkelijk' tot 'Zeer aantrekkelijk'.,Zeer onaantrekkelijk,Zeer aantrekkelijk,stims\neutral_stims\id-1363_gender-M_age-19.png,19,M,,,,,,,,,,,,,,,,0,1,1,2,0,12,12,41,,,,,,,,,,,,,,,,,,,,,0,1.943,,,,,,,,,02,F,False,False,2018_Oct_19_1144,pilot_RL,119.98741298707412,
rating,attractiveness,Hoe aantrekkelijk vind jij dit gezicht?,Je beoordeelt dit op een schaal van 'Zeer onaantrekkelijk' tot 'Zeer aantrekkelijk'.,Zeer onaantrekkelijk,Zeer aantrekkelijk,stims\neutral_stims\id-1315_gender-M_age-16.png,16,M,,,,,,,,,,,,,,,,0,1,1,2,0,13,13,24,,,,,,,,,,,,,,,,,,,,,0,2.585,,,,,,,,,02,F,False,False,2018_Oct_19_1144,pilot_RL,119.98741298707412,
rating,attractiveness,Hoe aantrekkelijk vind jij dit gezicht?,Je beoordeelt dit op een schaal van 'Zeer onaantrekkelijk' tot 'Zeer aantrekkelijk'.,Zeer onaantrekkelijk,Zeer aantrekkelijk,stims\neutral_stims\id-1294_gender-F_age-26.png,26,F,,,,,,,,,,,,,,,,0,1,1,2,0,14,14,14,,,,,,,,,,,,,,,,,,,,,0,1.593,,,,,,,,,02,F,False,False,2018_Oct_19_1144,pilot_RL,119.98741298707412,
rating,attractiveness,Hoe aantrekkelijk vind jij dit gezicht?,Je beoordeelt dit op een schaal van 'Zeer onaantrekkelijk' tot 'Zeer aantrekkelijk'.,Zeer onaantrekkelijk,Zeer aantrekkelijk,stims\neutral_stims\id-1358_gender-F_age-32.png,32,F,,,,,,,,,,,,,,,,0,1,1,2,0,15,15,37,,,,,,,,,,,,,,,,,,,,,0,1.901,,,,,,,,,02,F,False,False,2018_Oct_19_1144,pilot_RL,119.98741298707412,
rating,attractiveness,Hoe aantrekkelijk vind jij dit gezicht?,Je beoordeelt dit op een schaal van 'Zeer onaantrekkelijk' tot 'Zeer aantrekkelijk'.,Zeer onaantrekkelijk,Zeer aantrekkelijk,stims\neutral_stims\id-1367_gender-M_age-20.png,20,M,,,,,,,,,,,,,,,,0,1,1,2,0,16,16,43,,,,,,,,,,,,,,,,,,,,,1,2.318,,,,,,,,,02,F,False,False,2018_Oct_19_1144,pilot_RL,119.98741298707412,
rating,attractiveness,Hoe aantrekkelijk vind jij dit gezicht?,Je beoordeelt dit op een schaal van 'Zeer onaantrekkelijk' tot 'Zeer aantrekkelijk'.,Zeer onaantrekkelijk,Zeer aantrekkelijk,stims\neutral_stims\id-1289_gender-F_age-20.png,20,F,,,,,,,,,,,,,,,,0,1,1,2,0,17,17,10,,,,,,,,,,,,,,,,,,,,,0,3.943,,,,,,,,,02,F,False,False,2018_Oct_19_1144,pilot_RL,119.98741298707412,
rating,attractiveness,Hoe aantrekkelijk vind jij dit gezicht?,Je beoordeelt dit op een schaal van 'Zeer onaantrekkelijk' tot 'Zeer aantrekkelijk'.,Zeer onaantrekkelijk,Zeer aantrekkelijk,stims\neutral_stims\id-1293_gender-F_age-31.png,31,F,,,,,,,,,,,,,,,,0,1,1,2,0,18,18,13,,,,,,,,,,,,,,,,,,,,,-2,2.851,,,,,,,,,02,F,False,False,2018_Oct_19_1144,pilot_RL,119.98741298707412,
rating,attractiveness,Hoe aantrekkelijk vind jij dit gezicht?,Je beoordeelt dit op een schaal van 'Zeer onaantrekkelijk' tot 'Zeer aantrekkelijk'.,Zeer onaantrekkelijk,Zeer aantrekkelijk,stims\neutral_stims\id-1335_gender-M_age-23.png,23,M,,,,,,,,,,,,,,,,0,1,1,2,0,19,19,27,,,,,,,,,,,,,,,,,,,,,0,5.185,,,,,,,,,02,F,False,False,2018_Oct_19_1144,pilot_RL,119.98741298707412,
rating,attractiveness,Hoe aantrekkelijk vind jij dit gezicht?,Je beoordeelt dit op een schaal van 'Zeer onaantrekkelijk' tot 'Zeer aantrekkelijk'.,Zeer onaantrekkelijk,Zeer aantrekkelijk,stims\neutral_stims\id-1344_gender-M_age-25.png,25,M,,,,,,,,,,,,,,,,0,1,1,2,0,20,20,31,,,,,,,,,,,,,,,,,,,,,-2,2.218,,,,,,,,,02,F,False,False,2018_Oct_19_1144,pilot_RL,119.98741298707412,
rating,attractiveness,Hoe aantrekkelijk vind jij dit gezicht?,Je beoordeelt dit op een schaal van 'Zeer onaantrekkelijk' tot 'Zeer aantrekkelijk'.,Zeer onaantrekkelijk,Zeer aantrekkelijk,stims\neutral_stims\id-1264_gender-F_age-26.png,26,F,,,,,,,,,,,,,,,,0,1,1,2,0,21,21,1,,,,,,,,,,,,,,,,,,,,,0,2.709,,,,,,,,,02,F,False,False,2018_Oct_19_1144,pilot_RL,119.98741298707412,
rating,attractiveness,Hoe aantrekkelijk vind jij dit gezicht?,Je beoordeelt dit op een schaal van 'Zeer onaantrekkelijk' tot 'Zeer aantrekkelijk'.,Zeer onaantrekkelijk,Zeer aantrekkelijk,stims\neutral_stims\id-1362_gender-F_age-24.png,24,F,,,,,,,,,,,,,,,,0,1,1,2,0,22,22,40,,,,,,,,,,,,,,,,,,,,,0,3.918,,,,,,,,,02,F,False,False,2018_Oct_19_1144,pilot_RL,119.98741298707412,
rating,attractiveness,Hoe aantrekkelijk vind jij dit gezicht?,Je beoordeelt dit op een schaal van 'Zeer onaantrekkelijk' tot 'Zeer aantrekkelijk'.,Zeer onaantrekkelijk,Zeer aantrekkelijk,stims\neutral_stims\id-1356_gender-F_age-20.png,20,F,,,,,,,,,,,,,,,,0,1,1,2,0,23,23,36,,,,,,,,,,,,,,,,,,,,,0,1.768,,,,,,,,,02,F,False,False,2018_Oct_19_1144,pilot_RL,119.98741298707412,
rating,attractiveness,Hoe aantrekkelijk vind jij dit gezicht?,Je beoordeelt dit op een schaal van 'Zeer onaantrekkelijk' tot 'Zeer aantrekkelijk'.,Zeer onaantrekkelijk,Zeer aantrekkelijk,stims\neutral_stims\id-1354_gender-F_age-23.png,23,F,,,,,,,,,,,,,,,,0,1,1,2,0,24,24,34,,,,,,,,,,,,,,,,,,,,,-2,1.809,,,,,,,,,02,F,False,False,2018_Oct_19_1144,pilot_RL,119.98741298707412,
rating,attractiveness,Hoe aantrekkelijk vind jij dit gezicht?,Je beoordeelt dit op een schaal van 'Zeer onaantrekkelijk' tot 'Zeer aantrekkelijk'.,Zeer onaantrekkelijk,Zeer aantrekkelijk,stims\neutral_stims\id-1310_gender-F_age-28.png,28,F,,,,,,,,,,,,,,,,0,1,1,2,0,25,25,22,,,,,,,,,,,,,,,,,,,,,0,1.509,,,,,,,,,02,F,False,False,2018_Oct_19_1144,pilot_RL,119.98741298707412,
rating,attractiveness,Hoe aantrekkelijk vind jij dit gezicht?,Je beoordeelt dit op een schaal van 'Zeer onaantrekkelijk' tot 'Zeer aantrekkelijk'.,Zeer onaantrekkelijk,Zeer aantrekkelijk,stims\neutral_stims\id-1309_gender-M_age-22.png,22,M,,,,,,,,,,,,,,,,0,1,1,2,0,26,26,21,,,,,,,,,,,,,,,,,,,,,0,1.818,,,,,,,,,02,F,False,False,2018_Oct_19_1144,pilot_RL,119.98741298707412,
rating,attractiveness,Hoe aantrekkelijk vind jij dit gezicht?,Je beoordeelt dit op een schaal van 'Zeer onaantrekkelijk' tot 'Zeer aantrekkelijk'.,Zeer onaantrekkelijk,Zeer aantrekkelijk,stims\neutral_stims\id-1307_gender-F_age-22.png,22,F,,,,,,,,,,,,,,,,0,1,1,2,0,27,27,20,,,,,,,,,,,,,,,,,,,,,-1,3.068,,,,,,,,,02,F,False,False,2018_Oct_19_1144,pilot_RL,119.98741298707412,
rating,attractiveness,Hoe aantrekkelijk vind jij dit gezicht?,Je beoordeelt dit op een schaal van 'Zeer onaantrekkelijk' tot 'Zeer aantrekkelijk'.,Zeer onaantrekkelijk,Zeer aantrekkelijk,stims\neutral_stims\id-1266_gender-M_age-21.png,21,M,,,,,,,,,,,,,,,,0,1,1,2,0,28,28,2,,,,,,,,,,,,,,,,,,,,,0,5.752,,,,,,,,,02,F,False,False,2018_Oct_19_1144,pilot_RL,119.98741298707412,
rating,attractiveness,Hoe aantrekkelijk vind jij dit gezicht?,Je beoordeelt dit op een schaal van 'Zeer onaantrekkelijk' tot 'Zeer aantrekkelijk'.,Zeer onaantrekkelijk,Zeer aantrekkelijk,stims\neutral_stims\id-1345_gender-M_age-18.png,18,M,,,,,,,,,,,,,,,,0,1,1,2,0,29,29,32,,,,,,,,,,,,,,,,,,,,,0,2.46,,,,,,,,,02,F,False,False,2018_Oct_19_1144,pilot_RL,119.98741298707412,
rating,attractiveness,Hoe aantrekkelijk vind jij dit gezicht?,Je beoordeelt dit op een schaal van 'Zeer onaantrekkelijk' tot 'Zeer aantrekkelijk'.,Zeer onaantrekkelijk,Zeer aantrekkelijk,stims\neutral_stims\id-1306_gender-F_age-21.png,21,F,,,,,,,,,,,,,,,,0,1,1,2,0,30,30,19,,,,,,,,,,,,,,,,,,,,,-1,2.968,,,,,,,,,02,F,False,False,2018_Oct_19_1144,pilot_RL,119.98741298707412,
rating,attractiveness,Hoe aantrekkelijk vind jij dit gezicht?,Je beoordeelt dit op een schaal van 'Zeer onaantrekkelijk' tot 'Zeer aantrekkelijk'.,Zeer onaantrekkelijk,Zeer aantrekkelijk,stims\neutral_stims\id-1366_gender-F_age-24.png,24,F,,,,,,,,,,,,,,,,0,1,1,2,0,31,31,42,,,,,,,,,,,,,,,,,,,,,0,1.076,,,,,,,,,02,F,False,False,2018_Oct_19_1144,pilot_RL,119.98741298707412,
rating,attractiveness,Hoe aantrekkelijk vind jij dit gezicht?,Je beoordeelt dit op een schaal van 'Zeer onaantrekkelijk' tot 'Zeer aantrekkelijk'.,Zeer onaantrekkelijk,Zeer aantrekkelijk,stims\neutral_stims\id-1373_gender-F_age-30.png,30,F,,,,,,,,,,,,,,,,0,1,1,2,0,32,32,45,,,,,,,,,,,,,,,,,,,,,0,0.842,,,,,,,,,02,F,False,False,2018_Oct_19_1144,pilot_RL,119.98741298707412,
rating,attractiveness,Hoe aantrekkelijk vind jij dit gezicht?,Je beoordeelt dit op een schaal van 'Zeer onaantrekkelijk' tot 'Zeer aantrekkelijk'.,Zeer onaantrekkelijk,Zeer aantrekkelijk,stims\neutral_stims\id-1347_gender-F_age-27.png,27,F,,,,,,,,,,,,,,,,0,1,1,2,0,33,33,33,,,,,,,,,,,,,,,,,,,,,-1,2.843,,,,,,,,,02,F,False,False,2018_Oct_19_1144,pilot_RL,119.98741298707412,
rating,attractiveness,Hoe aantrekkelijk vind jij dit gezicht?,Je beoordeelt dit op een schaal van 'Zeer onaantrekkelijk' tot 'Zeer aantrekkelijk'.,Zeer onaantrekkelijk,Zeer aantrekkelijk,stims\neutral_stims\id-1270_gender-F_age-30.png,30,F,,,,,,,,,,,,,,,,0,1,1,2,0,34,34,4,,,,,,,,,,,,,,,,,,,,,0,1.976,,,,,,,,,02,F,False,False,2018_Oct_19_1144,pilot_RL,119.98741298707412,
rating,attractiveness,Hoe aantrekkelijk vind jij dit gezicht?,Je beoordeelt dit op een schaal van 'Zeer onaantrekkelijk' tot 'Zeer aantrekkelijk'.,Zeer onaantrekkelijk,Zeer aantrekkelijk,stims\neutral_stims\id-1380_gender-F_age-21.png,21,F,,,,,,,,,,,,,,,,0,1,1,2,0,35,35,49,,,,,,,,,,,,,,,,,,,,,0,2.293,,,,,,,,,02,F,False,False,2018_Oct_19_1144,pilot_RL,119.98741298707412,
rating,attractiveness,Hoe aantrekkelijk vind jij dit gezicht?,Je beoordeelt dit op een schaal van 'Zeer onaantrekkelijk' tot 'Zeer aantrekkelijk'.,Zeer onaantrekkelijk,Zeer aantrekkelijk,stims\neutral_stims\id-1274_gender-F_age-33.png,33,F,,,,,,,,,,,,,,,,0,1,1,2,0,36,36,6,,,,,,,,,,,,,,,,,,,,,-1,3.376,,,,,,,,,02,F,False,False,2018_Oct_19_1144,pilot_RL,119.98741298707412,
rating,attractiveness,Hoe aantrekkelijk vind jij dit gezicht?,Je beoordeelt dit op een schaal van 'Zeer onaantrekkelijk' tot 'Zeer aantrekkelijk'.,Zeer onaantrekkelijk,Zeer aantrekkelijk,stims\neutral_stims\id-1290_gender-F_age-23.png,23,F,,,,,,,,,,,,,,,,0,1,1,2,0,37,37,11,,,,,,,,,,,,,,,,,,,,,-1,6.952,,,,,,,,,02,F,False,False,2018_Oct_19_1144,pilot_RL,119.98741298707412,
rating,attractiveness,Hoe aantrekkelijk vind jij dit gezicht?,Je beoordeelt dit op een schaal van 'Zeer onaantrekkelijk' tot 'Zeer aantrekkelijk'.,Zeer onaantrekkelijk,Zeer aantrekkelijk,stims\neutral_stims\id-1360_gender-F_age-20.png,20,F,,,,,,,,,,,,,,,,0,1,1,2,0,38,38,38,,,,,,,,,,,,,,,,,,,,,-2,2.351,,,,,,,,,02,F,False,False,2018_Oct_19_1144,pilot_RL,119.98741298707412,
rating,attractiveness,Hoe aantrekkelijk vind jij dit gezicht?,Je beoordeelt dit op een schaal van 'Zeer onaantrekkelijk' tot 'Zeer aantrekkelijk'.,Zeer onaantrekkelijk,Zeer aantrekkelijk,stims\neutral_stims\id-1291_gender-F_age-24.png,24,F,,,,,,,,,,,,,,,,0,1,1,2,0,39,39,12,,,,,,,,,,,,,,,,,,,,,0,1.326,,,,,,,,,02,F,False,False,2018_Oct_19_1144,pilot_RL,119.98741298707412,
rating,attractiveness,Hoe aantrekkelijk vind jij dit gezicht?,Je beoordeelt dit op een schaal van 'Zeer onaantrekkelijk' tot 'Zeer aantrekkelijk'.,Zeer onaantrekkelijk,Zeer aantrekkelijk,stims\neutral_stims\id-1269_gender-F_age-23.png,23,F,,,,,,,,,,,,,,,,0,1,1,2,0,40,40,3,,,,,,,,,,,,,,,,,,,,,-2,1.559,,,,,,,,,02,F,False,False,2018_Oct_19_1144,pilot_RL,119.98741298707412,
rating,attractiveness,Hoe aantrekkelijk vind jij dit gezicht?,Je beoordeelt dit op een schaal van 'Zeer onaantrekkelijk' tot 'Zeer aantrekkelijk'.,Zeer onaantrekkelijk,Zeer aantrekkelijk,stims\neutral_stims\id-1355_gender-F_age-19.png,19,F,,,,,,,,,,,,,,,,0,1,1,2,0,41,41,35,,,,,,,,,,,,,,,,,,,,,0,1.293,,,,,,,,,02,F,False,False,2018_Oct_19_1144,pilot_RL,119.98741298707412,
rating,attractiveness,Hoe aantrekkelijk vind jij dit gezicht?,Je beoordeelt dit op een schaal van 'Zeer onaantrekkelijk' tot 'Zeer aantrekkelijk'.,Zeer onaantrekkelijk,Zeer aantrekkelijk,stims\neutral_stims\id-1296_gender-F_age-23.png,23,F,,,,,,,,,,,,,,,,0,1,1,2,0,42,42,16,,,,,,,,,,,,,,,,,,,,,0,2.001,,,,,,,,,02,F,False,False,2018_Oct_19_1144,pilot_RL,119.98741298707412,
rating,attractiveness,Hoe aantrekkelijk vind jij dit gezicht?,Je beoordeelt dit op een schaal van 'Zeer onaantrekkelijk' tot 'Zeer aantrekkelijk'.,Zeer onaantrekkelijk,Zeer aantrekkelijk,stims\neutral_stims\id-1378_gender-F_age-19.png,19,F,,,,,,,,,,,,,,,,0,1,1,2,0,43,43,48,,,,,,,,,,,,,,,,,,,,,0,2.109,,,,,,,,,02,F,False,False,2018_Oct_19_1144,pilot_RL,119.98741298707412,
rating,attractiveness,Hoe aantrekkelijk vind jij dit gezicht?,Je beoordeelt dit op een schaal van 'Zeer onaantrekkelijk' tot 'Zeer aantrekkelijk'.,Zeer onaantrekkelijk,Zeer aantrekkelijk,stims\neutral_stims\id-1295_gender-F_age-26.png,26,F,,,,,,,,,,,,,,,,0,1,1,2,0,44,44,15,,,,,,,,,,,,,,,,,,,,,-1,1.284,,,,,,,,,02,F,False,False,2018_Oct_19_1144,pilot_RL,119.98741298707412,
rating,attractiveness,Hoe aantrekkelijk vind jij dit gezicht?,Je beoordeelt dit op een schaal van 'Zeer onaantrekkelijk' tot 'Zeer aantrekkelijk'.,Zeer onaantrekkelijk,Zeer aantrekkelijk,stims\neutral_stims\id-1285_gender-F_age-19.png,19,F,,,,,,,,,,,,,,,,0,1,1,2,0,45,45,9,,,,,,,,,,,,,,,,,,,,,0,0.968,,,,,,,,,02,F,False,False,2018_Oct_19_1144,pilot_RL,119.98741298707412,
rating,attractiveness,Hoe aantrekkelijk vind jij dit gezicht?,Je beoordeelt dit op een schaal van 'Zeer onaantrekkelijk' tot 'Zeer aantrekkelijk'.,Zeer onaantrekkelijk,Zeer aantrekkelijk,stims\neutral_stims\id-1279_gender-F_age-19.png,19,F,,,,,,,,,,,,,,,,0,1,1,2,0,46,46,7,,,,,,,,,,,,,,,,,,,,,-2,2.659,,,,,,,,,02,F,False,False,2018_Oct_19_1144,pilot_RL,119.98741298707412,
rating,attractiveness,Hoe aantrekkelijk vind jij dit gezicht?,Je beoordeelt dit op een schaal van 'Zeer onaantrekkelijk' tot 'Zeer aantrekkelijk'.,Zeer onaantrekkelijk,Zeer aantrekkelijk,stims\neutral_stims\id-1260_gender-F_age-22.png,22,F,,,,,,,,,,,,,,,,0,1,1,2,0,47,47,0,,,,,,,,,,,,,,,,,,,,,-2,2.509,,,,,,,,,02,F,False,False,2018_Oct_19_1144,pilot_RL,119.98741298707412,
rating,attractiveness,Hoe aantrekkelijk vind jij dit gezicht?,Je beoordeelt dit op een schaal van 'Zeer onaantrekkelijk' tot 'Zeer aantrekkelijk'.,Zeer onaantrekkelijk,Zeer aantrekkelijk,stims\neutral_stims\id-1342_gender-M_age-19.png,19,M,,,,,,,,,,,,,,,,0,1,1,2,0,48,48,30,,,,,,,,,,,,,,,,,,,,,-2,2.018,,,,,,,,,02,F,False,False,2018_Oct_19_1144,pilot_RL,119.98741298707412,
rating,attractiveness,Hoe aantrekkelijk vind jij dit gezicht?,Je beoordeelt dit op een schaal van 'Zeer onaantrekkelijk' tot 'Zeer aantrekkelijk'.,Zeer onaantrekkelijk,Zeer aantrekkelijk,stims\neutral_stims\id-1302_gender-F_age-30.png,30,F,,,,,,,,,,,,,,,,0,1,1,2,0,49,49,18,,,,,,,,,,,,,,,,,,,,,-1,1.901,,,,,,,,,02,F,False,False,2018_Oct_19_1144,pilot_RL,119.98741298707412,
rating,attractiveness,Hoe aantrekkelijk vind jij dit gezicht?,Je beoordeelt dit op een schaal van 'Zeer onaantrekkelijk' tot 'Zeer aantrekkelijk'.,Zeer onaantrekkelijk,Zeer aantrekkelijk,,,,,,,,,,,,,,,,,,,0,1,1,2,,,,,,,,,,,,,,,,,,,,,,,,,,,,,,,,,,,02,F,False,False,2018_Oct_19_1144,pilot_RL,119.98741298707412,
rating,trustworthiness,Hoe betrouwbaar vind jij dit gezicht?,Je beoordeelt dit op een schaal van 'Zeer onbetrouwbaar' tot 'Zeer betrouwbaar'.,Zeer onbetrouwbaar,Zeer betrouwbaar,stims\neutral_stims\id-1377_gender-M_age-20.png,20,M,,,,,,,,,,,,,,,,0,2,2,3,0,0,0,47,,,,,,,,,,,,,,,,,,,,,1,2.243,,,,,,,,,02,F,False,False,2018_Oct_19_1144,pilot_RL,119.98741298707412,
rating,trustworthiness,Hoe betrouwbaar vind jij dit gezicht?,Je beoordeelt dit op een schaal van 'Zeer onbetrouwbaar' tot 'Zeer betrouwbaar'.,Zeer onbetrouwbaar,Zeer betrouwbaar,stims\neutral_stims\id-1260_gender-F_age-22.png,22,F,,,,,,,,,,,,,,,,0,2,2,3,0,1,1,0,,,,,,,,,,,,,,,,,,,,,0,1.309,,,,,,,,,02,F,False,False,2018_Oct_19_1144,pilot_RL,119.98741298707412,
rating,trustworthiness,Hoe betrouwbaar vind jij dit gezicht?,Je beoordeelt dit op een schaal van 'Zeer onbetrouwbaar' tot 'Zeer betrouwbaar'.,Zeer onbetrouwbaar,Zeer betrouwbaar,stims\neutral_stims\id-1373_gender-F_age-30.png,30,F,,,,,,,,,,,,,,,,0,2,2,3,0,2,2,45,,,,,,,,,,,,,,,,,,,,,0,1.909,,,,,,,,,02,F,False,False,2018_Oct_19_1144,pilot_RL,119.98741298707412,
rating,trustworthiness,Hoe betrouwbaar vind jij dit gezicht?,Je beoordeelt dit op een schaal van 'Zeer onbetrouwbaar' tot 'Zeer betrouwbaar'.,Zeer onbetrouwbaar,Zeer betrouwbaar,stims\neutral_stims\id-1306_gender-F_age-21.png,21,F,,,,,,,,,,,,,,,,0,2,2,3,0,3,3,19,,,,,,,,,,,,,,,,,,,,,0,2.359,,,,,,,,,02,F,False,False,2018_Oct_19_1144,pilot_RL,119.98741298707412,
rating,trustworthiness,Hoe betrouwbaar vind jij dit gezicht?,Je beoordeelt dit op een schaal van 'Zeer onbetrouwbaar' tot 'Zeer betrouwbaar'.,Zeer onbetrouwbaar,Zeer betrouwbaar,stims\neutral_stims\id-1315_gender-M_age-16.png,16,M,,,,,,,,,,,,,,,,0,2,2,3,0,4,4,24,,,,,,,,,,,,,,,,,,,,,-1,4.301,,,,,,,,,02,F,False,False,2018_Oct_19_1144,pilot_RL,119.98741298707412,
rating,trustworthiness,Hoe betrouwbaar vind jij dit gezicht?,Je beoordeelt dit op een schaal van 'Zeer onbetrouwbaar' tot 'Zeer betrouwbaar'.,Zeer onbetrouwbaar,Zeer betrouwbaar,stims\neutral_stims\id-1323_gender-F_age-23.png,23,F,,,,,,,,,,,,,,,,0,2,2,3,0,5,5,26,,,,,,,,,,,,,,,,,,,,,-2,2.284,,,,,,,,,02,F,False,False,2018_Oct_19_1144,pilot_RL,119.98741298707412,
rating,trustworthiness,Hoe betrouwbaar vind jij dit gezicht?,Je beoordeelt dit op een schaal van 'Zeer onbetrouwbaar' tot 'Zeer betrouwbaar'.,Zeer onbetrouwbaar,Zeer betrouwbaar,stims\neutral_stims\id-1270_gender-F_age-30.png,30,F,,,,,,,,,,,,,,,,0,2,2,3,0,6,6,4,,,,,,,,,,,,,,,,,,,,,-2,2.518,,,,,,,,,02,F,False,False,2018_Oct_19_1144,pilot_RL,119.98741298707412,
rating,trustworthiness,Hoe betrouwbaar vind jij dit gezicht?,Je beoordeelt dit op een schaal van 'Zeer onbetrouwbaar' tot 'Zeer betrouwbaar'.,Zeer onbetrouwbaar,Zeer betrouwbaar,stims\neutral_stims\id-1297_gender-F_age-22.png,22,F,,,,,,,,,,,,,,,,0,2,2,3,0,7,7,17,,,,,,,,,,,,,,,,,,,,,-1,1.634,,,,,,,,,02,F,False,False,2018_Oct_19_1144,pilot_RL,119.98741298707412,
rating,trustworthiness,Hoe betrouwbaar vind jij dit gezicht?,Je beoordeelt dit op een schaal van 'Zeer onbetrouwbaar' tot 'Zeer betrouwbaar'.,Zeer onbetrouwbaar,Zeer betrouwbaar,stims\neutral_stims\id-1367_gender-M_age-20.png,20,M,,,,,,,,,,,,,,,,0,2,2,3,0,8,8,43,,,,,,,,,,,,,,,,,,,,,-1,3.593,,,,,,,,,02,F,False,False,2018_Oct_19_1144,pilot_RL,119.98741298707412,
rating,trustworthiness,Hoe betrouwbaar vind jij dit gezicht?,Je beoordeelt dit op een schaal van 'Zeer onbetrouwbaar' tot 'Zeer betrouwbaar'.,Zeer onbetrouwbaar,Zeer betrouwbaar,stims\neutral_stims\id-1362_gender-F_age-24.png,24,F,,,,,,,,,,,,,,,,0,2,2,3,0,9,9,40,,,,,,,,,,,,,,,,,,,,,0,3.268,,,,,,,,,02,F,False,False,2018_Oct_19_1144,pilot_RL,119.98741298707412,
rating,trustworthiness,Hoe betrouwbaar vind jij dit gezicht?,Je beoordeelt dit op een schaal van 'Zeer onbetrouwbaar' tot 'Zeer betrouwbaar'.,Zeer onbetrouwbaar,Zeer betrouwbaar,stims\neutral_stims\id-1309_gender-M_age-22.png,22,M,,,,,,,,,,,,,,,,0,2,2,3,0,10,10,21,,,,,,,,,,,,,,,,,,,,,0,1.818,,,,,,,,,02,F,False,False,2018_Oct_19_1144,pilot_RL,119.98741298707412,
rating,trustworthiness,Hoe betrouwbaar vind jij dit gezicht?,Je beoordeelt dit op een schaal van 'Zeer onbetrouwbaar' tot 'Zeer betrouwbaar'.,Zeer onbetrouwbaar,Zeer betrouwbaar,stims\neutral_stims\id-1341_gender-M_age-19.png,19,M,,,,,,,,,,,,,,,,0,2,2,3,0,11,11,29,,,,,,,,,,,,,,,,,,,,,0,3.81,,,,,,,,,02,F,False,False,2018_Oct_19_1144,pilot_RL,119.98741298707412,
rating,trustworthiness,Hoe betrouwbaar vind jij dit gezicht?,Je beoordeelt dit op een schaal van 'Zeer onbetrouwbaar' tot 'Zeer betrouwbaar'.,Zeer onbetrouwbaar,Zeer betrouwbaar,stims\neutral_stims\id-1354_gender-F_age-23.png,23,F,,,,,,,,,,,,,,,,0,2,2,3,0,12,12,34,,,,,,,,,,,,,,,,,,,,,-2,1.859,,,,,,,,,02,F,False,False,2018_Oct_19_1144,pilot_RL,119.98741298707412,
rating,trustworthiness,Hoe betrouwbaar vind jij dit gezicht?,Je beoordeelt dit op een schaal van 'Zeer onbetrouwbaar' tot 'Zeer betrouwbaar'.,Zeer onbetrouwbaar,Zeer betrouwbaar,stims\neutral_stims\id-1280_gender-M_age-18.png,18,M,,,,,,,,,,,,,,,,0,2,2,3,0,13,13,8,,,,,,,,,,,,,,,,,,,,,-2,4.168,,,,,,,,,02,F,False,False,2018_Oct_19_1144,pilot_RL,119.98741298707412,
rating,trustworthiness,Hoe betrouwbaar vind jij dit gezicht?,Je beoordeelt dit op een schaal van 'Zeer onbetrouwbaar' tot 'Zeer betrouwbaar'.,Zeer onbetrouwbaar,Zeer betrouwbaar,stims\neutral_stims\id-1361_gender-F_age-19.png,19,F,,,,,,,,,,,,,,,,0,2,2,3,0,14,14,39,,,,,,,,,,,,,,,,,,,,,0,3.693,,,,,,,,,02,F,False,False,2018_Oct_19_1144,pilot_RL,119.98741298707412,
rating,trustworthiness,Hoe betrouwbaar vind jij dit gezicht?,Je beoordeelt dit op een schaal van 'Zeer onbetrouwbaar' tot 'Zeer betrouwbaar'.,Zeer onbetrouwbaar,Zeer betrouwbaar,stims\neutral_stims\id-1311_gender-F_age-22.png,22,F,,,,,,,,,,,,,,,,0,2,2,3,0,15,15,23,,,,,,,,,,,,,,,,,,,,,0,1.426,,,,,,,,,02,F,False,False,2018_Oct_19_1144,pilot_RL,119.98741298707412,
rating,trustworthiness,Hoe betrouwbaar vind jij dit gezicht?,Je beoordeelt dit op een schaal van 'Zeer onbetrouwbaar' tot 'Zeer betrouwbaar'.,Zeer onbetrouwbaar,Zeer betrouwbaar,stims\neutral_stims\id-1289_gender-F_age-20.png,20,F,,,,,,,,,,,,,,,,0,2,2,3,0,16,16,10,,,,,,,,,,,,,,,,,,,,,-1,2.434,,,,,,,,,02,F,False,False,2018_Oct_19_1144,pilot_RL,119.98741298707412,
rating,trustworthiness,Hoe betrouwbaar vind jij dit gezicht?,Je beoordeelt dit op een schaal van 'Zeer onbetrouwbaar' tot 'Zeer betrouwbaar'.,Zeer onbetrouwbaar,Zeer betrouwbaar,stims\neutral_stims\id-1370_gender-M_age-19.png,19,M,,,,,,,,,,,,,,,,0,2,2,3,0,17,17,44,,,,,,,,,,,,,,,,,,,,,1,2.31,,,,,,,,,02,F,False,False,2018_Oct_19_1144,pilot_RL,119.98741298707412,
rating,trustworthiness,Hoe betrouwbaar vind jij dit gezicht?,Je beoordeelt dit op een schaal van 'Zeer onbetrouwbaar' tot 'Zeer betrouwbaar'.,Zeer onbetrouwbaar,Zeer betrouwbaar,stims\neutral_stims\id-1293_gender-F_age-31.png,31,F,,,,,,,,,,,,,,,,0,2,2,3,0,18,18,13,,,,,,,,,,,,,,,,,,,,,-3,3.793,,,,,,,,,02,F,False,False,2018_Oct_19_1144,pilot_RL,119.98741298707412,
rating,trustworthiness,Hoe betrouwbaar vind jij dit gezicht?,Je beoordeelt dit op een schaal van 'Zeer onbetrouwbaar' tot 'Zeer betrouwbaar'.,Zeer onbetrouwbaar,Zeer betrouwbaar,stims\neutral_stims\id-1339_gender-F_age-30.png,30,F,,,,,,,,,,,,,,,,0,2,2,3,0,19,19,28,,,,,,,,,,,,,,,,,,,,,0,3.218,,,,,,,,,02,F,False,False,2018_Oct_19_1144,pilot_RL,119.98741298707412,
rating,trustworthiness,Hoe betrouwbaar vind jij dit gezicht?,Je beoordeelt dit op een schaal van 'Zeer onbetrouwbaar' tot 'Zeer betrouwbaar'.,Zeer onbetrouwbaar,Zeer betrouwbaar,stims\neutral_stims\id-1273_gender-F_age-20.png,20,F,,,,,,,,,,,,,,,,0,2,2,3,0,20,20,5,,,,,,,,,,,,,,,,,,,,,0,0.951,,,,,,,,,02,F,False,False,2018_Oct_19_1144,pilot_RL,119.98741298707412,
rating,trustworthiness,Hoe betrouwbaar vind jij dit gezicht?,Je beoordeelt dit op een schaal van 'Zeer onbetrouwbaar' tot 'Zeer betrouwbaar'.,Zeer onbetrouwbaar,Zeer betrouwbaar,stims\neutral_stims\id-1344_gender-M_age-25.png,25,M,,,,,,,,,,,,,,,,0,2,2,3,0,21,21,31,,,,,,,,,,,,,,,,,,,,,-1,1.943,,,,,,,,,02,F,False,False,2018_Oct_19_1144,pilot_RL,119.98741298707412,
rating,trustworthiness,Hoe betrouwbaar vind jij dit gezicht?,Je beoordeelt dit op een schaal van 'Zeer onbetrouwbaar' tot 'Zeer betrouwbaar'.,Zeer onbetrouwbaar,Zeer betrouwbaar,stims\neutral_stims\id-1274_gender-F_age-33.png,33,F,,,,,,,,,,,,,,,,0,2,2,3,0,22,22,6,,,,,,,,,,,,,,,,,,,,,-1,3.835,,,,,,,,,02,F,False,False,2018_Oct_19_1144,pilot_RL,119.98741298707412,
rating,trustworthiness,Hoe betrouwbaar vind jij dit gezicht?,Je beoordeelt dit op een schaal van 'Zeer onbetrouwbaar' tot 'Zeer betrouwbaar'.,Zeer onbetrouwbaar,Zeer betrouwbaar,stims\neutral_stims\id-1347_gender-F_age-27.png,27,F,,,,,,,,,,,,,,,,0,2,2,3,0,23,23,33,,,,,,,,,,,,,,,,,,,,,0,7.91,,,,,,,,,02,F,False,False,2018_Oct_19_1144,pilot_RL,119.98741298707412,
rating,trustworthiness,Hoe betrouwbaar vind jij dit gezicht?,Je beoordeelt dit op een schaal van 'Zeer onbetrouwbaar' tot 'Zeer betrouwbaar'.,Zeer onbetrouwbaar,Zeer betrouwbaar,stims\neutral_stims\id-1310_gender-F_age-28.png,28,F,,,,,,,,,,,,,,,,0,2,2,3,0,24,24,22,,,,,,,,,,,,,,,,,,,,,-1,1.451,,,,,,,,,02,F,False,False,2018_Oct_19_1144,pilot_RL,119.98741298707412,
rating,trustworthiness,Hoe betrouwbaar vind jij dit gezicht?,Je beoordeelt dit op een schaal van 'Zeer onbetrouwbaar' tot 'Zeer betrouwbaar'.,Zeer onbetrouwbaar,Zeer betrouwbaar,stims\neutral_stims\id-1290_gender-F_age-23.png,23,F,,,,,,,,,,,,,,,,0,2,2,3,0,25,25,11,,,,,,,,,,,,,,,,,,,,,-1,1.409,,,,,,,,,02,F,False,False,2018_Oct_19_1144,pilot_RL,119.98741298707412,
rating,trustworthiness,Hoe betrouwbaar vind jij dit gezicht?,Je beoordeelt dit op een schaal van 'Zeer onbetrouwbaar' tot 'Zeer betrouwbaar'.,Zeer onbetrouwbaar,Zeer betrouwbaar,stims\neutral_stims\id-1376_gender-F_age-19.png,19,F,,,,,,,,,,,,,,,,0,2,2,3,0,26,26,46,,,,,,,,,,,,,,,,,,,,,1,2.085,,,,,,,,,02,F,False,False,2018_Oct_19_1144,pilot_RL,119.98741298707412,
rating,trustworthiness,Hoe betrouwbaar vind jij dit gezicht?,Je beoordeelt dit op een schaal van 'Zeer onbetrouwbaar' tot 'Zeer betrouwbaar'.,Zeer onbetrouwbaar,Zeer betrouwbaar,stims\neutral_stims\id-1378_gender-F_age-19.png,19,F,,,,,,,,,,,,,,,,0,2,2,3,0,27,27,48,,,,,,,,,,,,,,,,,,,,,-1,1.909,,,,,,,,,02,F,False,False,2018_Oct_19_1144,pilot_RL,119.98741298707412,
rating,trustworthiness,Hoe betrouwbaar vind jij dit gezicht?,Je beoordeelt dit op een schaal van 'Zeer onbetrouwbaar' tot 'Zeer betrouwbaar'.,Zeer onbetrouwbaar,Zeer betrouwbaar,stims\neutral_stims\id-1302_gender-F_age-30.png,30,F,,,,,,,,,,,,,,,,0,2,2,3,0,28,28,18,,,,,,,,,,,,,,,,,,,,,0,5.618,,,,,,,,,02,F,False,False,2018_Oct_19_1144,pilot_RL,119.98741298707412,
rating,trustworthiness,Hoe betrouwbaar vind jij dit gezicht?,Je beoordeelt dit op een schaal van 'Zeer onbetrouwbaar' tot 'Zeer betrouwbaar'.,Zeer onbetrouwbaar,Zeer betrouwbaar,stims\neutral_stims\id-1358_gender-F_age-32.png,32,F,,,,,,,,,,,,,,,,0,2,2,3,0,29,29,37,,,,,,,,,,,,,,,,,,,,,0,0.701,,,,,,,,,02,F,False,False,2018_Oct_19_1144,pilot_RL,119.98741298707412,
rating,trustworthiness,Hoe betrouwbaar vind jij dit gezicht?,Je beoordeelt dit op een schaal van 'Zeer onbetrouwbaar' tot 'Zeer betrouwbaar'.,Zeer onbetrouwbaar,Zeer betrouwbaar,stims\neutral_stims\id-1296_gender-F_age-23.png,23,F,,,,,,,,,,,,,,,,0,2,2,3,0,30,30,16,,,,,,,,,,,,,,,,,,,,,0,0.718,,,,,,,,,02,F,False,False,2018_Oct_19_1144,pilot_RL,119.98741298707412,
rating,trustworthiness,Hoe betrouwbaar vind jij dit gezicht?,Je beoordeelt dit op een schaal van 'Zeer onbetrouwbaar' tot 'Zeer betrouwbaar'.,Zeer onbetrouwbaar,Zeer betrouwbaar,stims\neutral_stims\id-1264_gender-F_age-26.png,26,F,,,,,,,,,,,,,,,,0,2,2,3,0,31,31,1,,,,,,,,,,,,,,,,,,,,,-1,1.318,,,,,,,,,02,F,False,False,2018_Oct_19_1144,pilot_RL,119.98741298707412,
rating,trustworthiness,Hoe betrouwbaar vind jij dit gezicht?,Je beoordeelt dit op een schaal van 'Zeer onbetrouwbaar' tot 'Zeer betrouwbaar'.,Zeer onbetrouwbaar,Zeer betrouwbaar,stims\neutral_stims\id-1355_gender-F_age-19.png,19,F,,,,,,,,,,,,,,,,0,2,2,3,0,32,32,35,,,,,,,,,,,,,,,,,,,,,-1,1.201,,,,,,,,,02,F,False,False,2018_Oct_19_1144,pilot_RL,119.98741298707412,
rating,trustworthiness,Hoe betrouwbaar vind jij dit gezicht?,Je beoordeelt dit op een schaal van 'Zeer onbetrouwbaar' tot 'Zeer betrouwbaar'.,Zeer onbetrouwbaar,Zeer betrouwbaar,stims\neutral_stims\id-1266_gender-M_age-21.png,21,M,,,,,,,,,,,,,,,,0,2,2,3,0,33,33,2,,,,,,,,,,,,,,,,,,,,,0,1.226,,,,,,,,,02,F,False,False,2018_Oct_19_1144,pilot_RL,119.98741298707412,
rating,trustworthiness,Hoe betrouwbaar vind jij dit gezicht?,Je beoordeelt dit op een schaal van 'Zeer onbetrouwbaar' tot 'Zeer betrouwbaar'.,Zeer onbetrouwbaar,Zeer betrouwbaar,stims\neutral_stims\id-1269_gender-F_age-23.png,23,F,,,,,,,,,,,,,,,,0,2,2,3,0,34,34,3,,,,,,,,,,,,,,,,,,,,,0,2.868,,,,,,,,,02,F,False,False,2018_Oct_19_1144,pilot_RL,119.98741298707412,
rating,trustworthiness,Hoe betrouwbaar vind jij dit gezicht?,Je beoordeelt dit op een schaal van 'Zeer onbetrouwbaar' tot 'Zeer betrouwbaar'.,Zeer onbetrouwbaar,Zeer betrouwbaar,stims\neutral_stims\id-1335_gender-M_age-23.png,23,M,,,,,,,,,,,,,,,,0,2,2,3,0,35,35,27,,,,,,,,,,,,,,,,,,,,,-2,2.359,,,,,,,,,02,F,False,False,2018_Oct_19_1144,pilot_RL,119.98741298707412,
rating,trustworthiness,Hoe betrouwbaar vind jij dit gezicht?,Je beoordeelt dit op een schaal van 'Zeer onbetrouwbaar' tot 'Zeer betrouwbaar'.,Zeer onbetrouwbaar,Zeer betrouwbaar,stims\neutral_stims\id-1363_gender-M_age-19.png,19,M,,,,,,,,,,,,,,,,0,2,2,3,0,36,36,41,,,,,,,,,,,,,,,,,,,,,-2,2.184,,,,,,,,,02,F,False,False,2018_Oct_19_1144,pilot_RL,119.98741298707412,
rating,trustworthiness,Hoe betrouwbaar vind jij dit gezicht?,Je beoordeelt dit op een schaal van 'Zeer onbetrouwbaar' tot 'Zeer betrouwbaar'.,Zeer onbetrouwbaar,Zeer betrouwbaar,stims\neutral_stims\id-1366_gender-F_age-24.png,24,F,,,,,,,,,,,,,,,,0,2,2,3,0,37,37,42,,,,,,,,,,,,,,,,,,,,,0,1.684,,,,,,,,,02,F,False,False,2018_Oct_19_1144,pilot_RL,119.98741298707412,
rating,trustworthiness,Hoe betrouwbaar vind jij dit gezicht?,Je beoordeelt dit op een schaal van 'Zeer onbetrouwbaar' tot 'Zeer betrouwbaar'.,Zeer onbetrouwbaar,Zeer betrouwbaar,stims\neutral_stims\id-1291_gender-F_age-24.png,24,F,,,,,,,,,,,,,,,,0,2,2,3,0,38,38,12,,,,,,,,,,,,,,,,,,,,,0,1.759,,,,,,,,,02,F,False,False,2018_Oct_19_1144,pilot_RL,119.98741298707412,
rating,trustworthiness,Hoe betrouwbaar vind jij dit gezicht?,Je beoordeelt dit op een schaal van 'Zeer onbetrouwbaar' tot 'Zeer betrouwbaar'.,Zeer onbetrouwbaar,Zeer betrouwbaar,stims\neutral_stims\id-1295_gender-F_age-26.png,26,F,,,,,,,,,,,,,,,,0,2,2,3,0,39,39,15,,,,,,,,,,,,,,,,,,,,,-1,1.626,,,,,,,,,02,F,False,False,2018_Oct_19_1144,pilot_RL,119.98741298707412,
rating,trustworthiness,Hoe betrouwbaar vind jij dit gezicht?,Je beoordeelt dit op een schaal van 'Zeer onbetrouwbaar' tot 'Zeer betrouwbaar'.,Zeer onbetrouwbaar,Zeer betrouwbaar,stims\neutral_stims\id-1294_gender-F_age-26.png,26,F,,,,,,,,,,,,,,,,0,2,2,3,0,40,40,14,,,,,,,,,,,,,,,,,,,,,-1,2.076,,,,,,,,,02,F,False,False,2018_Oct_19_1144,pilot_RL,119.98741298707412,
rating,trustworthiness,Hoe betrouwbaar vind jij dit gezicht?,Je beoordeelt dit op een schaal van 'Zeer onbetrouwbaar' tot 'Zeer betrouwbaar'.,Zeer onbetrouwbaar,Zeer betrouwbaar,stims\neutral_stims\id-1345_gender-M_age-18.png,18,M,,,,,,,,,,,,,,,,0,2,2,3,0,41,41,32,,,,,,,,,,,,,,,,,,,,,-1,1.443,,,,,,,,,02,F,False,False,2018_Oct_19_1144,pilot_RL,119.98741298707412,
rating,trustworthiness,Hoe betrouwbaar vind jij dit gezicht?,Je beoordeelt dit op een schaal van 'Zeer onbetrouwbaar' tot 'Zeer betrouwbaar'.,Zeer onbetrouwbaar,Zeer betrouwbaar,stims\neutral_stims\id-1307_gender-F_age-22.png,22,F,,,,,,,,,,,,,,,,0,2,2,3,0,42,42,20,,,,,,,,,,,,,,,,,,,,,-2,1.718,,,,,,,,,02,F,False,False,2018_Oct_19_1144,pilot_RL,119.98741298707412,
rating,trustworthiness,Hoe betrouwbaar vind jij dit gezicht?,Je beoordeelt dit op een schaal van 'Zeer onbetrouwbaar' tot 'Zeer betrouwbaar'.,Zeer onbetrouwbaar,Zeer betrouwbaar,stims\neutral_stims\id-1380_gender-F_age-21.png,21,F,,,,,,,,,,,,,,,,0,2,2,3,0,43,43,49,,,,,,,,,,,,,,,,,,,,,0,2.243,,,,,,,,,02,F,False,False,2018_Oct_19_1144,pilot_RL,119.98741298707412,
rating,trustworthiness,Hoe betrouwbaar vind jij dit gezicht?,Je beoordeelt dit op een schaal van 'Zeer onbetrouwbaar' tot 'Zeer betrouwbaar'.,Zeer onbetrouwbaar,Zeer betrouwbaar,stims\neutral_stims\id-1318_gender-M_age-35.png,35,M,,,,,,,,,,,,,,,,0,2,2,3,0,44,44,25,,,,,,,,,,,,,,,,,,,,,0,2.184,,,,,,,,,02,F,False,False,2018_Oct_19_1144,pilot_RL,119.98741298707412,
rating,trustworthiness,Hoe betrouwbaar vind jij dit gezicht?,Je beoordeelt dit op een schaal van 'Zeer onbetrouwbaar' tot 'Zeer betrouwbaar'.,Zeer onbetrouwbaar,Zeer betrouwbaar,stims\neutral_stims\id-1356_gender-F_age-20.png,20,F,,,,,,,,,,,,,,,,0,2,2,3,0,45,45,36,,,,,,,,,,,,,,,,,,,,,0,0.859,,,,,,,,,02,F,False,False,2018_Oct_19_1144,pilot_RL,119.98741298707412,
rating,trustworthiness,Hoe betrouwbaar vind jij dit gezicht?,Je beoordeelt dit op een schaal van 'Zeer onbetrouwbaar' tot 'Zeer betrouwbaar'.,Zeer onbetrouwbaar,Zeer betrouwbaar,stims\neutral_stims\id-1285_gender-F_age-19.png,19,F,,,,,,,,,,,,,,,,0,2,2,3,0,46,46,9,,,,,,,,,,,,,,,,,,,,,0,0.818,,,,,,,,,02,F,False,False,2018_Oct_19_1144,pilot_RL,119.98741298707412,
rating,trustworthiness,Hoe betrouwbaar vind jij dit gezicht?,Je beoordeelt dit op een schaal van 'Zeer onbetrouwbaar' tot 'Zeer betrouwbaar'.,Zeer onbetrouwbaar,Zeer betrouwbaar,stims\neutral_stims\id-1360_gender-F_age-20.png,20,F,,,,,,,,,,,,,,,,0,2,2,3,0,47,47,38,,,,,,,,,,,,,,,,,,,,,0,1.601,,,,,,,,,02,F,False,False,2018_Oct_19_1144,pilot_RL,119.98741298707412,
rating,trustworthiness,Hoe betrouwbaar vind jij dit gezicht?,Je beoordeelt dit op een schaal van 'Zeer onbetrouwbaar' tot 'Zeer betrouwbaar'.,Zeer onbetrouwbaar,Zeer betrouwbaar,stims\neutral_stims\id-1342_gender-M_age-19.png,19,M,,,,,,,,,,,,,,,,0,2,2,3,0,48,48,30,,,,,,,,,,,,,,,,,,,,,0,1.401,,,,,,,,,02,F,False,False,2018_Oct_19_1144,pilot_RL,119.98741298707412,
rating,trustworthiness,Hoe betrouwbaar vind jij dit gezicht?,Je beoordeelt dit op een schaal van 'Zeer onbetrouwbaar' tot 'Zeer betrouwbaar'.,Zeer onbetrouwbaar,Zeer betrouwbaar,stims\neutral_stims\id-1279_gender-F_age-19.png,19,F,,,,,,,,,,,,,,,,0,2,2,3,0,49,49,7,,,,,,,,,,,,,,,,,,,,,0,1.259,,,,,,,,,02,F,False,False,2018_Oct_19_1144,pilot_RL,119.98741298707412,
rating,trustworthiness,Hoe betrouwbaar vind jij dit gezicht?,Je beoordeelt dit op een schaal van 'Zeer onbetrouwbaar' tot 'Zeer betrouwbaar'.,Zeer onbetrouwbaar,Zeer betrouwbaar,,,,,,,,,,,,,,,,,,,0,2,2,3,,,,,,,,,,,,,,,,,,,,,,,,,,,,,,,,,,,02,F,False,False,2018_Oct_19_1144,pilot_RL,119.98741298707412,
rating,dominance,Hoe dominant vind jij dit gezicht?,Je beoordeelt dit op een schaal van 'Helemaal niet dominant' tot 'Zeer dominant'.,Helemaal niet dominant,Zeer dominant,stims\neutral_stims\id-1366_gender-F_age-24.png,24,F,,,,,,,,,,,,,,,,0,3,3,4,0,0,0,42,,,,,,,,,,,,,,,,,,,,,0,1.501,,,,,,,,,02,F,False,False,2018_Oct_19_1144,pilot_RL,119.98741298707412,
rating,dominance,Hoe dominant vind jij dit gezicht?,Je beoordeelt dit op een schaal van 'Helemaal niet dominant' tot 'Zeer dominant'.,Helemaal niet dominant,Zeer dominant,stims\neutral_stims\id-1285_gender-F_age-19.png,19,F,,,,,,,,,,,,,,,,0,3,3,4,0,1,1,9,,,,,,,,,,,,,,,,,,,,,0,0.893,,,,,,,,,02,F,False,False,2018_Oct_19_1144,pilot_RL,119.98741298707412,
rating,dominance,Hoe dominant vind jij dit gezicht?,Je beoordeelt dit op een schaal van 'Helemaal niet dominant' tot 'Zeer dominant'.,Helemaal niet dominant,Zeer dominant,stims\neutral_stims\id-1380_gender-F_age-21.png,21,F,,,,,,,,,,,,,,,,0,3,3,4,0,2,2,49,,,,,,,,,,,,,,,,,,,,,-2,24.187,,,,,,,,,02,F,False,False,2018_Oct_19_1144,pilot_RL,119.98741298707412,
rating,dominance,Hoe dominant vind jij dit gezicht?,Je beoordeelt dit op een schaal van 'Helemaal niet dominant' tot 'Zeer dominant'.,Helemaal niet dominant,Zeer dominant,stims\neutral_stims\id-1274_gender-F_age-33.png,33,F,,,,,,,,,,,,,,,,0,3,3,4,0,3,3,6,,,,,,,,,,,,,,,,,,,,,0,1.543,,,,,,,,,02,F,False,False,2018_Oct_19_1144,pilot_RL,119.98741298707412,
rating,dominance,Hoe dominant vind jij dit gezicht?,Je beoordeelt dit op een schaal van 'Helemaal niet dominant' tot 'Zeer dominant'.,Helemaal niet dominant,Zeer dominant,stims\neutral_stims\id-1363_gender-M_age-19.png,19,M,,,,,,,,,,,,,,,,0,3,3,4,0,4,4,41,,,,,,,,,,,,,,,,,,,,,0,0.876,,,,,,,,,02,F,False,False,2018_Oct_19_1144,pilot_RL,119.98741298707412,
rating,dominance,Hoe dominant vind jij dit gezicht?,Je beoordeelt dit op een schaal van 'Helemaal niet dominant' tot 'Zeer dominant'.,Helemaal niet dominant,Zeer dominant,stims\neutral_stims\id-1342_gender-M_age-19.png,19,M,,,,,,,,,,,,,,,,0,3,3,4,0,5,5,30,,,,,,,,,,,,,,,,,,,,,1,2.259,,,,,,,,,02,F,False,False,2018_Oct_19_1144,pilot_RL,119.98741298707412,
rating,dominance,Hoe dominant vind jij dit gezicht?,Je beoordeelt dit op een schaal van 'Helemaal niet dominant' tot 'Zeer dominant'.,Helemaal niet dominant,Zeer dominant,stims\neutral_stims\id-1280_gender-M_age-18.png,18,M,,,,,,,,,,,,,,,,0,3,3,4,0,6,6,8,,,,,,,,,,,,,,,,,,,,,-3,2.134,,,,,,,,,02,F,False,False,2018_Oct_19_1144,pilot_RL,119.98741298707412,
rating,dominance,Hoe dominant vind jij dit gezicht?,Je beoordeelt dit op een schaal van 'Helemaal niet dominant' tot 'Zeer dominant'.,Helemaal niet dominant,Zeer dominant,stims\neutral_stims\id-1311_gender-F_age-22.png,22,F,,,,,,,,,,,,,,,,0,3,3,4,0,7,7,23,,,,,,,,,,,,,,,,,,,,,-1,1.393,,,,,,,,,02,F,False,False,2018_Oct_19_1144,pilot_RL,119.98741298707412,
rating,dominance,Hoe dominant vind jij dit gezicht?,Je beoordeelt dit op een schaal van 'Helemaal niet dominant' tot 'Zeer dominant'.,Helemaal niet dominant,Zeer dominant,stims\neutral_stims\id-1260_gender-F_age-22.png,22,F,,,,,,,,,,,,,,,,0,3,3,4,0,8,8,0,,,,,,,,,,,,,,,,,,,,,-3,1.676,,,,,,,,,02,F,False,False,2018_Oct_19_1144,pilot_RL,119.98741298707412,
rating,dominance,Hoe dominant vind jij dit gezicht?,Je beoordeelt dit op een schaal van 'Helemaal niet dominant' tot 'Zeer dominant'.,Helemaal niet dominant,Zeer dominant,stims\neutral_stims\id-1315_gender-M_age-16.png,16,M,,,,,,,,,,,,,,,,0,3,3,4,0,9,9,24,,,,,,,,,,,,,,,,,,,,,2,1.851,,,,,,,,,02,F,False,False,2018_Oct_19_1144,pilot_RL,119.98741298707412,
rating,dominance,Hoe dominant vind jij dit gezicht?,Je beoordeelt dit op een schaal van 'Helemaal niet dominant' tot 'Zeer dominant'.,Helemaal niet dominant,Zeer dominant,stims\neutral_stims\id-1294_gender-F_age-26.png,26,F,,,,,,,,,,,,,,,,0,3,3,4,0,10,10,14,,,,,,,,,,,,,,,,,,,,,1,1.951,,,,,,,,,02,F,False,False,2018_Oct_19_1144,pilot_RL,119.98741298707412,
rating,dominance,Hoe dominant vind jij dit gezicht?,Je beoordeelt dit op een schaal van 'Helemaal niet dominant' tot 'Zeer dominant'.,Helemaal niet dominant,Zeer dominant,stims\neutral_stims\id-1302_gender-F_age-30.png,30,F,,,,,,,,,,,,,,,,0,3,3,4,0,11,11,18,,,,,,,,,,,,,,,,,,,,,2,1.859,,,,,,,,,02,F,False,False,2018_Oct_19_1144,pilot_RL,119.98741298707412,
rating,dominance,Hoe dominant vind jij dit gezicht?,Je beoordeelt dit op een schaal van 'Helemaal niet dominant' tot 'Zeer dominant'.,Helemaal niet dominant,Zeer dominant,stims\neutral_stims\id-1279_gender-F_age-19.png,19,F,,,,,,,,,,,,,,,,0,3,3,4,0,12,12,7,,,,,,,,,,,,,,,,,,,,,-1,1.243,,,,,,,,,02,F,False,False,2018_Oct_19_1144,pilot_RL,119.98741298707412,
rating,dominance,Hoe dominant vind jij dit gezicht?,Je beoordeelt dit op een schaal van 'Helemaal niet dominant' tot 'Zeer dominant'.,Helemaal niet dominant,Zeer dominant,stims\neutral_stims\id-1318_gender-M_age-35.png,35,M,,,,,,,,,,,,,,,,0,3,3,4,0,13,13,25,,,,,,,,,,,,,,,,,,,,,1,1.334,,,,,,,,,02,F,False,False,2018_Oct_19_1144,pilot_RL,119.98741298707412,
rating,dominance,Hoe dominant vind jij dit gezicht?,Je beoordeelt dit op een schaal van 'Helemaal niet dominant' tot 'Zeer dominant'.,Helemaal niet dominant,Zeer dominant,stims\neutral_stims\id-1355_gender-F_age-19.png,19,F,,,,,,,,,,,,,,,,0,3,3,4,0,14,14,35,,,,,,,,,,,,,,,,,,,,,-2,2.151,,,,,,,,,02,F,False,False,2018_Oct_19_1144,pilot_RL,119.98741298707412,
rating,dominance,Hoe dominant vind jij dit gezicht?,Je beoordeelt dit op een schaal van 'Helemaal niet dominant' tot 'Zeer dominant'.,Helemaal niet dominant,Zeer dominant,stims\neutral_stims\id-1345_gender-M_age-18.png,18,M,,,,,,,,,,,,,,,,0,3,3,4,0,15,15,32,,,,,,,,,,,,,,,,,,,,,1,1.859,,,,,,,,,02,F,False,False,2018_Oct_19_1144,pilot_RL,119.98741298707412,
rating,dominance,Hoe dominant vind jij dit gezicht?,Je beoordeelt dit op een schaal van 'Helemaal niet dominant' tot 'Zeer dominant'.,Helemaal niet dominant,Zeer dominant,stims\neutral_stims\id-1341_gender-M_age-19.png,19,M,,,,,,,,,,,,,,,,0,3,3,4,0,16,16,29,,,,,,,,,,,,,,,,,,,,,1,1.143,,,,,,,,,02,F,False,False,2018_Oct_19_1144,pilot_RL,119.98741298707412,
rating,dominance,Hoe dominant vind jij dit gezicht?,Je beoordeelt dit op een schaal van 'Helemaal niet dominant' tot 'Zeer dominant'.,Helemaal niet dominant,Zeer dominant,stims\neutral_stims\id-1360_gender-F_age-20.png,20,F,,,,,,,,,,,,,,,,0,3,3,4,0,17,17,38,,,,,,,,,,,,,,,,,,,,,-3,1.792,,,,,,,,,02,F,False,False,2018_Oct_19_1144,pilot_RL,119.98741298707412,
rating,dominance,Hoe dominant vind jij dit gezicht?,Je beoordeelt dit op een schaal van 'Helemaal niet dominant' tot 'Zeer dominant'.,Helemaal niet dominant,Zeer dominant,stims\neutral_stims\id-1362_gender-F_age-24.png,24,F,,,,,,,,,,,,,,,,0,3,3,4,0,18,18,40,,,,,,,,,,,,,,,,,,,,,-2,1.468,,,,,,,,,02,F,False,False,2018_Oct_19_1144,pilot_RL,119.98741298707412,
rating,dominance,Hoe dominant vind jij dit gezicht?,Je beoordeelt dit op een schaal van 'Helemaal niet dominant' tot 'Zeer dominant'.,Helemaal niet dominant,Zeer dominant,stims\neutral_stims\id-1310_gender-F_age-28.png,28,F,,,,,,,,,,,,,,,,0,3,3,4,0,19,19,22,,,,,,,,,,,,,,,,,,,,,2,1.401,,,,,,,,,02,F,False,False,2018_Oct_19_1144,pilot_RL,119.98741298707412,
rating,dominance,Hoe dominant vind jij dit gezicht?,Je beoordeelt dit op een schaal van 'Helemaal niet dominant' tot 'Zeer dominant'.,Helemaal niet dominant,Zeer dominant,stims\neutral_stims\id-1373_gender-F_age-30.png,30,F,,,,,,,,,,,,,,,,0,3,3,4,0,20,20,45,,,,,,,,,,,,,,,,,,,,,-1,1.493,,,,,,,,,02,F,False,False,2018_Oct_19_1144,pilot_RL,119.98741298707412,
rating,dominance,Hoe dominant vind jij dit gezicht?,Je beoordeelt dit op een schaal van 'Helemaal niet dominant' tot 'Zeer dominant'.,Helemaal niet dominant,Zeer dominant,stims\neutral_stims\id-1309_gender-M_age-22.png,22,M,,,,,,,,,,,,,,,,0,3,3,4,0,21,21,21,,,,,,,,,,,,,,,,,,,,,-2,1.701,,,,,,,,,02,F,False,False,2018_Oct_19_1144,pilot_RL,119.98741298707412,
rating,dominance,Hoe dominant vind jij dit gezicht?,Je beoordeelt dit op een schaal van 'Helemaal niet dominant' tot 'Zeer dominant'.,Helemaal niet dominant,Zeer dominant,stims\neutral_stims\id-1335_gender-M_age-23.png,23,M,,,,,,,,,,,,,,,,0,3,3,4,0,22,22,27,,,,,,,,,,,,,,,,,,,,,-3,2.401,,,,,,,,,02,F,False,False,2018_Oct_19_1144,pilot_RL,119.98741298707412,
rating,dominance,Hoe dominant vind jij dit gezicht?,Je beoordeelt dit op een schaal van 'Helemaal niet dominant' tot 'Zeer dominant'.,Helemaal niet dominant,Zeer dominant,stims\neutral_stims\id-1270_gender-F_age-30.png,30,F,,,,,,,,,,,,,,,,0,3,3,4,0,23,23,4,,,,,,,,,,,,,,,,,,,,,0,1.918,,,,,,,,,02,F,False,False,2018_Oct_19_1144,pilot_RL,119.98741298707412,
rating,dominance,Hoe dominant vind jij dit gezicht?,Je beoordeelt dit op een schaal van 'Helemaal niet dominant' tot 'Zeer dominant'.,Helemaal niet dominant,Zeer dominant,stims\neutral_stims\id-1307_gender-F_age-22.png,22,F,,,,,,,,,,,,,,,,0,3,3,4,0,24,24,20,,,,,,,,,,,,,,,,,,,,,0,0.943,,,,,,,,,02,F,False,False,2018_Oct_19_1144,pilot_RL,119.98741298707412,
rating,dominance,Hoe dominant vind jij dit gezicht?,Je beoordeelt dit op een schaal van 'Helemaal niet dominant' tot 'Zeer dominant'.,Helemaal niet dominant,Zeer dominant,stims\neutral_stims\id-1356_gender-F_age-20.png,20,F,,,,,,,,,,,,,,,,0,3,3,4,0,25,25,36,,,,,,,,,,,,,,,,,,,,,0,0.968,,,,,,,,,02,F,False,False,2018_Oct_19_1144,pilot_RL,119.98741298707412,
rating,dominance,Hoe dominant vind jij dit gezicht?,Je beoordeelt dit op een schaal van 'Helemaal niet dominant' tot 'Zeer dominant'.,Helemaal niet dominant,Zeer dominant,stims\neutral_stims\id-1344_gender-M_age-25.png,25,M,,,,,,,,,,,,,,,,0,3,3,4,0,26,26,31,,,,,,,,,,,,,,,,,,,,,-2,2.835,,,,,,,,,02,F,False,False,2018_Oct_19_1144,pilot_RL,119.98741298707412,
rating,dominance,Hoe dominant vind jij dit gezicht?,Je beoordeelt dit op een schaal van 'Helemaal niet dominant' tot 'Zeer dominant'.,Helemaal niet dominant,Zeer dominant,stims\neutral_stims\id-1269_gender-F_age-23.png,23,F,,,,,,,,,,,,,,,,0,3,3,4,0,27,27,3,,,,,,,,,,,,,,,,,,,,,-1,1.276,,,,,,,,,02,F,False,False,2018_Oct_19_1144,pilot_RL,119.98741298707412,
rating,dominance,Hoe dominant vind jij dit gezicht?,Je beoordeelt dit op een schaal van 'Helemaal niet dominant' tot 'Zeer dominant'.,Helemaal niet dominant,Zeer dominant,stims\neutral_stims\id-1290_gender-F_age-23.png,23,F,,,,,,,,,,,,,,,,0,3,3,4,0,28,28,11,,,,,,,,,,,,,,,,,,,,,1,1.393,,,,,,,,,02,F,False,False,2018_Oct_19_1144,pilot_RL,119.98741298707412,
rating,dominance,Hoe dominant vind jij dit gezicht?,Je beoordeelt dit op een schaal van 'Helemaal niet dominant' tot 'Zeer dominant'.,Helemaal niet dominant,Zeer dominant,stims\neutral_stims\id-1354_gender-F_age-23.png,23,F,,,,,,,,,,,,,,,,0,3,3,4,0,29,29,34,,,,,,,,,,,,,,,,,,,,,-1,1.301,,,,,,,,,02,F,False,False,2018_Oct_19_1144,pilot_RL,119.98741298707412,
rating,dominance,Hoe dominant vind jij dit gezicht?,Je beoordeelt dit op een schaal van 'Helemaal niet dominant' tot 'Zeer dominant'.,Helemaal niet dominant,Zeer dominant,stims\neutral_stims\id-1295_gender-F_age-26.png,26,F,,,,,,,,,,,,,,,,0,3,3,4,0,30,30,15,,,,,,,,,,,,,,,,,,,,,1,1.893,,,,,,,,,02,F,False,False,2018_Oct_19_1144,pilot_RL,119.98741298707412,
rating,dominance,Hoe dominant vind jij dit gezicht?,Je beoordeelt dit op een schaal van 'Helemaal niet dominant' tot 'Zeer dominant'.,Helemaal niet dominant,Zeer dominant,stims\neutral_stims\id-1377_gender-M_age-20.png,20,M,,,,,,,,,,,,,,,,0,3,3,4,0,31,31,47,,,,,,,,,,,,,,,,,,,,,0,1.468,,,,,,,,,02,F,False,False,2018_Oct_19_1144,pilot_RL,119.98741298707412,
rating,dominance,Hoe dominant vind jij dit gezicht?,Je beoordeelt dit op een schaal van 'Helemaal niet dominant' tot 'Zeer dominant'.,Helemaal niet dominant,Zeer dominant,stims\neutral_stims\id-1273_gender-F_age-20.png,20,F,,,,,,,,,,,,,,,,0,3,3,4,0,32,32,5,,,,,,,,,,,,,,,,,,,,,1,1.301,,,,,,,,,02,F,False,False,2018_Oct_19_1144,pilot_RL,119.98741298707412,
rating,dominance,Hoe dominant vind jij dit gezicht?,Je beoordeelt dit op een schaal van 'Helemaal niet dominant' tot 'Zeer dominant'.,Helemaal niet dominant,Zeer dominant,stims\neutral_stims\id-1297_gender-F_age-22.png,22,F,,,,,,,,,,,,,,,,0,3,3,4,0,33,33,17,,,,,,,,,,,,,,,,,,,,,0,0.668,,,,,,,,,02,F,False,False,2018_Oct_19_1144,pilot_RL,119.98741298707412,
rating,dominance,Hoe dominant vind jij dit gezicht?,Je beoordeelt dit op een schaal van 'Helemaal niet dominant' tot 'Zeer dominant'.,Helemaal niet dominant,Zeer dominant,stims\neutral_stims\id-1266_gender-M_age-21.png,21,M,,,,,,,,,,,,,,,,0,3,3,4,0,34,34,2,,,,,,,,,,,,,,,,,,,,,0,0.676,,,,,,,,,02,F,False,False,2018_Oct_19_1144,pilot_RL,119.98741298707412,
rating,dominance,Hoe dominant vind jij dit gezicht?,Je beoordeelt dit op een schaal van 'Helemaal niet dominant' tot 'Zeer dominant'.,Helemaal niet dominant,Zeer dominant,stims\neutral_stims\id-1376_gender-F_age-19.png,19,F,,,,,,,,,,,,,,,,0,3,3,4,0,35,35,46,,,,,,,,,,,,,,,,,,,,,0,1.143,,,,,,,,,02,F,False,False,2018_Oct_19_1144,pilot_RL,119.98741298707412,
rating,dominance,Hoe dominant vind jij dit gezicht?,Je beoordeelt dit op een schaal van 'Helemaal niet dominant' tot 'Zeer dominant'.,Helemaal niet dominant,Zeer dominant,stims\neutral_stims\id-1291_gender-F_age-24.png,24,F,,,,,,,,,,,,,,,,0,3,3,4,0,36,36,12,,,,,,,,,,,,,,,,,,,,,0,0.768,,,,,,,,,02,F,False,False,2018_Oct_19_1144,pilot_RL,119.98741298707412,
rating,dominance,Hoe dominant vind jij dit gezicht?,Je beoordeelt dit op een schaal van 'Helemaal niet dominant' tot 'Zeer dominant'.,Helemaal niet dominant,Zeer dominant,stims\neutral_stims\id-1289_gender-F_age-20.png,20,F,,,,,,,,,,,,,,,,0,3,3,4,0,37,37,10,,,,,,,,,,,,,,,,,,,,,0,0.876,,,,,,,,,02,F,False,False,2018_Oct_19_1144,pilot_RL,119.98741298707412,
rating,dominance,Hoe dominant vind jij dit gezicht?,Je beoordeelt dit op een schaal van 'Helemaal niet dominant' tot 'Zeer dominant'.,Helemaal niet dominant,Zeer dominant,stims\neutral_stims\id-1361_gender-F_age-19.png,19,F,,,,,,,,,,,,,,,,0,3,3,4,0,38,38,39,,,,,,,,,,,,,,,,,,,,,0,2.126,,,,,,,,,02,F,False,False,2018_Oct_19_1144,pilot_RL,119.98741298707412,
rating,dominance,Hoe dominant vind jij dit gezicht?,Je beoordeelt dit op een schaal van 'Helemaal niet dominant' tot 'Zeer dominant'.,Helemaal niet dominant,Zeer dominant,stims\neutral_stims\id-1296_gender-F_age-23.png,23,F,,,,,,,,,,,,,,,,0,3,3,4,0,39,39,16,,,,,,,,,,,,,,,,,,,,,0,4.293,,,,,,,,,02,F,False,False,2018_Oct_19_1144,pilot_RL,119.98741298707412,
rating,dominance,Hoe dominant vind jij dit gezicht?,Je beoordeelt dit op een schaal van 'Helemaal niet dominant' tot 'Zeer dominant'.,Helemaal niet dominant,Zeer dominant,stims\neutral_stims\id-1370_gender-M_age-19.png,19,M,,,,,,,,,,,,,,,,0,3,3,4,0,40,40,44,,,,,,,,,,,,,,,,,,,,,1,2.709,,,,,,,,,02,F,False,False,2018_Oct_19_1144,pilot_RL,119.98741298707412,
rating,dominance,Hoe dominant vind jij dit gezicht?,Je beoordeelt dit op een schaal van 'Helemaal niet dominant' tot 'Zeer dominant'.,Helemaal niet dominant,Zeer dominant,stims\neutral_stims\id-1378_gender-F_age-19.png,19,F,,,,,,,,,,,,,,,,0,3,3,4,0,41,41,48,,,,,,,,,,,,,,,,,,,,,1,1.71,,,,,,,,,02,F,False,False,2018_Oct_19_1144,pilot_RL,119.98741298707412,
rating,dominance,Hoe dominant vind jij dit gezicht?,Je beoordeelt dit op een schaal van 'Helemaal niet dominant' tot 'Zeer dominant'.,Helemaal niet dominant,Zeer dominant,stims\neutral_stims\id-1367_gender-M_age-20.png,20,M,,,,,,,,,,,,,,,,0,3,3,4,0,42,42,43,,,,,,,,,,,,,,,,,,,,,1,1.126,,,,,,,,,02,F,False,False,2018_Oct_19_1144,pilot_RL,119.98741298707412,
rating,dominance,Hoe dominant vind jij dit gezicht?,Je beoordeelt dit op een schaal van 'Helemaal niet dominant' tot 'Zeer dominant'.,Helemaal niet dominant,Zeer dominant,stims\neutral_stims\id-1264_gender-F_age-26.png,26,F,,,,,,,,,,,,,,,,0,3,3,4,0,43,43,1,,,,,,,,,,,,,,,,,,,,,-2,1.534,,,,,,,,,02,F,False,False,2018_Oct_19_1144,pilot_RL,119.98741298707412,
rating,dominance,Hoe dominant vind jij dit gezicht?,Je beoordeelt dit op een schaal van 'Helemaal niet dominant' tot 'Zeer dominant'.,Helemaal niet dominant,Zeer dominant,stims\neutral_stims\id-1293_gender-F_age-31.png,31,F,,,,,,,,,,,,,,,,0,3,3,4,0,44,44,13,,,,,,,,,,,,,,,,,,,,,-1,1.409,,,,,,,,,02,F,False,False,2018_Oct_19_1144,pilot_RL,119.98741298707412,
rating,dominance,Hoe dominant vind jij dit gezicht?,Je beoordeelt dit op een schaal van 'Helemaal niet dominant' tot 'Zeer dominant'.,Helemaal niet dominant,Zeer dominant,stims\neutral_stims\id-1339_gender-F_age-30.png,30,F,,,,,,,,,,,,,,,,0,3,3,4,0,45,45,28,,,,,,,,,,,,,,,,,,,,,-2,1.293,,,,,,,,,02,F,False,False,2018_Oct_19_1144,pilot_RL,119.98741298707412,
rating,dominance,Hoe dominant vind jij dit gezicht?,Je beoordeelt dit op een schaal van 'Helemaal niet dominant' tot 'Zeer dominant'.,Helemaal niet dominant,Zeer dominant,stims\neutral_stims\id-1323_gender-F_age-23.png,23,F,,,,,,,,,,,,,,,,0,3,3,4,0,46,46,26,,,,,,,,,,,,,,,,,,,,,-1,4.001,,,,,,,,,02,F,False,False,2018_Oct_19_1144,pilot_RL,119.98741298707412,
rating,dominance,Hoe dominant vind jij dit gezicht?,Je beoordeelt dit op een schaal van 'Helemaal niet dominant' tot 'Zeer dominant'.,Helemaal niet dominant,Zeer dominant,stims\neutral_stims\id-1306_gender-F_age-21.png,21,F,,,,,,,,,,,,,,,,0,3,3,4,0,47,47,19,,,,,,,,,,,,,,,,,,,,,0,2.084,,,,,,,,,02,F,False,False,2018_Oct_19_1144,pilot_RL,119.98741298707412,
rating,dominance,Hoe dominant vind jij dit gezicht?,Je beoordeelt dit op een schaal van 'Helemaal niet dominant' tot 'Zeer dominant'.,Helemaal niet dominant,Zeer dominant,stims\neutral_stims\id-1358_gender-F_age-32.png,32,F,,,,,,,,,,,,,,,,0,3,3,4,0,48,48,37,,,,,,,,,,,,,,,,,,,,,0,1.776,,,,,,,,,02,F,False,False,2018_Oct_19_1144,pilot_RL,119.98741298707412,
rating,dominance,Hoe dominant vind jij dit gezicht?,Je beoordeelt dit op een schaal van 'Helemaal niet dominant' tot 'Zeer dominant'.,Helemaal niet dominant,Zeer dominant,stims\neutral_stims\id-1347_gender-F_age-27.png,27,F,,,,,,,,,,,,,,,,0,3,3,4,0,49,49,33,,,,,,,,,,,,,,,,,,,,,0,0.809,,,,,,,,,02,F,False,False,2018_Oct_19_1144,pilot_RL,119.98741298707412,
rating,dominance,Hoe dominant vind jij dit gezicht?,Je beoordeelt dit op een schaal van 'Helemaal niet dominant' tot 'Zeer dominant'.,Helemaal niet dominant,Zeer dominant,,,,,,,,,,,,,,,,,,,0,3,3,4,,,,,,,,,,,,,,,,,,,,,,,,,,,,,,,,,,,02,F,False,False,2018_Oct_19_1144,pilot_RL,119.98741298707412,
rating,arousal,Hoe geactiveerd maakt dit gezicht je?,Je beoordeelt dit op een schaal van 'Helemaal niet geactiveerd' tot 'Zeer geactiveerd'. Met 'geactiveerd' bedoelen we dat het het gezicht je alert/energiek/gespannen doet voelen. Met 'niet geactiveerd' bedoelen we dat het gezicht je kalm/ontspannen/rustig doet voelen.,Helemaal niet geactiveerd,Zeer geactiveerd,stims\neutral_stims\id-1290_gender-F_age-23.png,23,F,,,,,,,,,,,,,,,,0,4,4,0,0,0,0,11,,,,,,,,,,,,,,,,,,,,,0,1.684,,,,,,,,,02,F,False,False,2018_Oct_19_1144,pilot_RL,119.98741298707412,
rating,arousal,Hoe geactiveerd maakt dit gezicht je?,Je beoordeelt dit op een schaal van 'Helemaal niet geactiveerd' tot 'Zeer geactiveerd'. Met 'geactiveerd' bedoelen we dat het het gezicht je alert/energiek/gespannen doet voelen. Met 'niet geactiveerd' bedoelen we dat het gezicht je kalm/ontspannen/rustig doet voelen.,Helemaal niet geactiveerd,Zeer geactiveerd,stims\neutral_stims\id-1344_gender-M_age-25.png,25,M,,,,,,,,,,,,,,,,0,4,4,0,0,1,1,31,,,,,,,,,,,,,,,,,,,,,-1,1.326,,,,,,,,,02,F,False,False,2018_Oct_19_1144,pilot_RL,119.98741298707412,
rating,arousal,Hoe geactiveerd maakt dit gezicht je?,Je beoordeelt dit op een schaal van 'Helemaal niet geactiveerd' tot 'Zeer geactiveerd'. Met 'geactiveerd' bedoelen we dat het het gezicht je alert/energiek/gespannen doet voelen. Met 'niet geactiveerd' bedoelen we dat het gezicht je kalm/ontspannen/rustig doet voelen.,Helemaal niet geactiveerd,Zeer geactiveerd,stims\neutral_stims\id-1370_gender-M_age-19.png,19,M,,,,,,,,,,,,,,,,0,4,4,0,0,2,2,44,,,,,,,,,,,,,,,,,,,,,1,1.209,,,,,,,,,02,F,False,False,2018_Oct_19_1144,pilot_RL,119.98741298707412,
rating,arousal,Hoe geactiveerd maakt dit gezicht je?,Je beoordeelt dit op een schaal van 'Helemaal niet geactiveerd' tot 'Zeer geactiveerd'. Met 'geactiveerd' bedoelen we dat het het gezicht je alert/energiek/gespannen doet voelen. Met 'niet geactiveerd' bedoelen we dat het gezicht je kalm/ontspannen/rustig doet voelen.,Helemaal niet geactiveerd,Zeer geactiveerd,stims\neutral_stims\id-1367_gender-M_age-20.png,20,M,,,,,,,,,,,,,,,,0,4,4,0,0,3,3,43,,,,,,,,,,,,,,,,,,,,,1,1.218,,,,,,,,,02,F,False,False,2018_Oct_19_1144,pilot_RL,119.98741298707412,
rating,arousal,Hoe geactiveerd maakt dit gezicht je?,Je beoordeelt dit op een schaal van 'Helemaal niet geactiveerd' tot 'Zeer geactiveerd'. Met 'geactiveerd' bedoelen we dat het het gezicht je alert/energiek/gespannen doet voelen. Met 'niet geactiveerd' bedoelen we dat het gezicht je kalm/ontspannen/rustig doet voelen.,Helemaal niet geactiveerd,Zeer geactiveerd,stims\neutral_stims\id-1315_gender-M_age-16.png,16,M,,,,,,,,,,,,,,,,0,4,4,0,0,4,4,24,,,,,,,,,,,,,,,,,,,,,1,1.134,,,,,,,,,02,F,False,False,2018_Oct_19_1144,pilot_RL,119.98741298707412,
rating,arousal,Hoe geactiveerd maakt dit gezicht je?,Je beoordeelt dit op een schaal van 'Helemaal niet geactiveerd' tot 'Zeer geactiveerd'. Met 'geactiveerd' bedoelen we dat het het gezicht je alert/energiek/gespannen doet voelen. Met 'niet geactiveerd' bedoelen we dat het gezicht je kalm/ontspannen/rustig doet voelen.,Helemaal niet geactiveerd,Zeer geactiveerd,stims\neutral_stims\id-1335_gender-M_age-23.png,23,M,,,,,,,,,,,,,,,,0,4,4,0,0,5,5,27,,,,,,,,,,,,,,,,,,,,,-1,0.959,,,,,,,,,02,F,False,False,2018_Oct_19_1144,pilot_RL,119.98741298707412,
rating,arousal,Hoe geactiveerd maakt dit gezicht je?,Je beoordeelt dit op een schaal van 'Helemaal niet geactiveerd' tot 'Zeer geactiveerd'. Met 'geactiveerd' bedoelen we dat het het gezicht je alert/energiek/gespannen doet voelen. Met 'niet geactiveerd' bedoelen we dat het gezicht je kalm/ontspannen/rustig doet voelen.,Helemaal niet geactiveerd,Zeer geactiveerd,stims\neutral_stims\id-1289_gender-F_age-20.png,20,F,,,,,,,,,,,,,,,,0,4,4,0,0,6,6,10,,,,,,,,,,,,,,,,,,,,,-2,1.459,,,,,,,,,02,F,False,False,2018_Oct_19_1144,pilot_RL,119.98741298707412,
rating,arousal,Hoe geactiveerd maakt dit gezicht je?,Je beoordeelt dit op een schaal van 'Helemaal niet geactiveerd' tot 'Zeer geactiveerd'. Met 'geactiveerd' bedoelen we dat het het gezicht je alert/energiek/gespannen doet voelen. Met 'niet geactiveerd' bedoelen we dat het gezicht je kalm/ontspannen/rustig doet voelen.,Helemaal niet geactiveerd,Zeer geactiveerd,stims\neutral_stims\id-1269_gender-F_age-23.png,23,F,,,,,,,,,,,,,,,,0,4,4,0,0,7,7,3,,,,,,,,,,,,,,,,,,,,,-3,1.493,,,,,,,,,02,F,False,False,2018_Oct_19_1144,pilot_RL,119.98741298707412,
rating,arousal,Hoe geactiveerd maakt dit gezicht je?,Je beoordeelt dit op een schaal van 'Helemaal niet geactiveerd' tot 'Zeer geactiveerd'. Met 'geactiveerd' bedoelen we dat het het gezicht je alert/energiek/gespannen doet voelen. Met 'niet geactiveerd' bedoelen we dat het gezicht je kalm/ontspannen/rustig doet voelen.,Helemaal niet geactiveerd,Zeer geactiveerd,stims\neutral_stims\id-1377_gender-M_age-20.png,20,M,,,,,,,,,,,,,,,,0,4,4,0,0,8,8,47,,,,,,,,,,,,,,,,,,,,,-2,1.201,,,,,,,,,02,F,False,False,2018_Oct_19_1144,pilot_RL,119.98741298707412,
rating,arousal,Hoe geactiveerd maakt dit gezicht je?,Je beoordeelt dit op een schaal van 'Helemaal niet geactiveerd' tot 'Zeer geactiveerd'. Met 'geactiveerd' bedoelen we dat het het gezicht je alert/energiek/gespannen doet voelen. Met 'niet geactiveerd' bedoelen we dat het gezicht je kalm/ontspannen/rustig doet voelen.,Helemaal niet geactiveerd,Zeer geactiveerd,stims\neutral_stims\id-1341_gender-M_age-19.png,19,M,,,,,,,,,,,,,,,,0,4,4,0,0,9,9,29,,,,,,,,,,,,,,,,,,,,,-1,1.401,,,,,,,,,02,F,False,False,2018_Oct_19_1144,pilot_RL,119.98741298707412,
rating,arousal,Hoe geactiveerd maakt dit gezicht je?,Je beoordeelt dit op een schaal van 'Helemaal niet geactiveerd' tot 'Zeer geactiveerd'. Met 'geactiveerd' bedoelen we dat het het gezicht je alert/energiek/gespannen doet voelen. Met 'niet geactiveerd' bedoelen we dat het gezicht je kalm/ontspannen/rustig doet voelen.,Helemaal niet geactiveerd,Zeer geactiveerd,stims\neutral_stims\id-1274_gender-F_age-33.png,33,F,,,,,,,,,,,,,,,,0,4,4,0,0,10,10,6,,,,,,,,,,,,,,,,,,,,,-1,0.943,,,,,,,,,02,F,False,False,2018_Oct_19_1144,pilot_RL,119.98741298707412,
rating,arousal,Hoe geactiveerd maakt dit gezicht je?,Je beoordeelt dit op een schaal van 'Helemaal niet geactiveerd' tot 'Zeer geactiveerd'. Met 'geactiveerd' bedoelen we dat het het gezicht je alert/energiek/gespannen doet voelen. Met 'niet geactiveerd' bedoelen we dat het gezicht je kalm/ontspannen/rustig doet voelen.,Helemaal niet geactiveerd,Zeer geactiveerd,stims\neutral_stims\id-1297_gender-F_age-22.png,22,F,,,,,,,,,,,,,,,,0,4,4,0,0,11,11,17,,,,,,,,,,,,,,,,,,,,,1,1.418,,,,,,,,,02,F,False,False,2018_Oct_19_1144,pilot_RL,119.98741298707412,
rating,arousal,Hoe geactiveerd maakt dit gezicht je?,Je beoordeelt dit op een schaal van 'Helemaal niet geactiveerd' tot 'Zeer geactiveerd'. Met 'geactiveerd' bedoelen we dat het het gezicht je alert/energiek/gespannen doet voelen. Met 'niet geactiveerd' bedoelen we dat het gezicht je kalm/ontspannen/rustig doet voelen.,Helemaal niet geactiveerd,Zeer geactiveerd,stims\neutral_stims\id-1291_gender-F_age-24.png,24,F,,,,,,,,,,,,,,,,0,4,4,0,0,12,12,12,,,,,,,,,,,,,,,,,,,,,-1,0.976,,,,,,,,,02,F,False,False,2018_Oct_19_1144,pilot_RL,119.98741298707412,
rating,arousal,Hoe geactiveerd maakt dit gezicht je?,Je beoordeelt dit op een schaal van 'Helemaal niet geactiveerd' tot 'Zeer geactiveerd'. Met 'geactiveerd' bedoelen we dat het het gezicht je alert/energiek/gespannen doet voelen. Met 'niet geactiveerd' bedoelen we dat het gezicht je kalm/ontspannen/rustig doet voelen.,Helemaal niet geactiveerd,Zeer geactiveerd,stims\neutral_stims\id-1339_gender-F_age-30.png,30,F,,,,,,,,,,,,,,,,0,4,4,0,0,13,13,28,,,,,,,,,,,,,,,,,,,,,0,1.359,,,,,,,,,02,F,False,False,2018_Oct_19_1144,pilot_RL,119.98741298707412,
rating,arousal,Hoe geactiveerd maakt dit gezicht je?,Je beoordeelt dit op een schaal van 'Helemaal niet geactiveerd' tot 'Zeer geactiveerd'. Met 'geactiveerd' bedoelen we dat het het gezicht je alert/energiek/gespannen doet voelen. Met 'niet geactiveerd' bedoelen we dat het gezicht je kalm/ontspannen/rustig doet voelen.,Helemaal niet geactiveerd,Zeer geactiveerd,stims\neutral_stims\id-1280_gender-M_age-18.png,18,M,,,,,,,,,,,,,,,,0,4,4,0,0,14,14,8,,,,,,,,,,,,,,,,,,,,,2,1.984,,,,,,,,,02,F,False,False,2018_Oct_19_1144,pilot_RL,119.98741298707412,
rating,arousal,Hoe geactiveerd maakt dit gezicht je?,Je beoordeelt dit op een schaal van 'Helemaal niet geactiveerd' tot 'Zeer geactiveerd'. Met 'geactiveerd' bedoelen we dat het het gezicht je alert/energiek/gespannen doet voelen. Met 'niet geactiveerd' bedoelen we dat het gezicht je kalm/ontspannen/rustig doet voelen.,Helemaal niet geactiveerd,Zeer geactiveerd,stims\neutral_stims\id-1310_gender-F_age-28.png,28,F,,,,,,,,,,,,,,,,0,4,4,0,0,15,15,22,,,,,,,,,,,,,,,,,,,,,2,1.259,,,,,,,,,02,F,False,False,2018_Oct_19_1144,pilot_RL,119.98741298707412,
rating,arousal,Hoe geactiveerd maakt dit gezicht je?,Je beoordeelt dit op een schaal van 'Helemaal niet geactiveerd' tot 'Zeer geactiveerd'. Met 'geactiveerd' bedoelen we dat het het gezicht je alert/energiek/gespannen doet voelen. Met 'niet geactiveerd' bedoelen we dat het gezicht je kalm/ontspannen/rustig doet voelen.,Helemaal niet geactiveerd,Zeer geactiveerd,stims\neutral_stims\id-1260_gender-F_age-22.png,22,F,,,,,,,,,,,,,,,,0,4,4,0,0,16,16,0,,,,,,,,,,,,,,,,,,,,,0,0.768,,,,,,,,,02,F,False,False,2018_Oct_19_1144,pilot_RL,119.98741298707412,
rating,arousal,Hoe geactiveerd maakt dit gezicht je?,Je beoordeelt dit op een schaal van 'Helemaal niet geactiveerd' tot 'Zeer geactiveerd'. Met 'geactiveerd' bedoelen we dat het het gezicht je alert/energiek/gespannen doet voelen. Met 'niet geactiveerd' bedoelen we dat het gezicht je kalm/ontspannen/rustig doet voelen.,Helemaal niet geactiveerd,Zeer geactiveerd,stims\neutral_stims\id-1270_gender-F_age-30.png,30,F,,,,,,,,,,,,,,,,0,4,4,0,0,17,17,4,,,,,,,,,,,,,,,,,,,,,0,0.726,,,,,,,,,02,F,False,False,2018_Oct_19_1144,pilot_RL,119.98741298707412,
rating,arousal,Hoe geactiveerd maakt dit gezicht je?,Je beoordeelt dit op een schaal van 'Helemaal niet geactiveerd' tot 'Zeer geactiveerd'. Met 'geactiveerd' bedoelen we dat het het gezicht je alert/energiek/gespannen doet voelen. Met 'niet geactiveerd' bedoelen we dat het gezicht je kalm/ontspannen/rustig doet voelen.,Helemaal niet geactiveerd,Zeer geactiveerd,stims\neutral_stims\id-1264_gender-F_age-26.png,26,F,,,,,,,,,,,,,,,,0,4,4,0,0,18,18,1,,,,,,,,,,,,,,,,,,,,,0,0.709,,,,,,,,,02,F,False,False,2018_Oct_19_1144,pilot_RL,119.98741298707412,
rating,arousal,Hoe geactiveerd maakt dit gezicht je?,Je beoordeelt dit op een schaal van 'Helemaal niet geactiveerd' tot 'Zeer geactiveerd'. Met 'geactiveerd' bedoelen we dat het het gezicht je alert/energiek/gespannen doet voelen. Met 'niet geactiveerd' bedoelen we dat het gezicht je kalm/ontspannen/rustig doet voelen.,Helemaal niet geactiveerd,Zeer geactiveerd,stims\neutral_stims\id-1302_gender-F_age-30.png,30,F,,,,,,,,,,,,,,,,0,4,4,0,0,19,19,18,,,,,,,,,,,,,,,,,,,,,2,1.993,,,,,,,,,02,F,False,False,2018_Oct_19_1144,pilot_RL,119.98741298707412,
rating,arousal,Hoe geactiveerd maakt dit gezicht je?,Je beoordeelt dit op een schaal van 'Helemaal niet geactiveerd' tot 'Zeer geactiveerd'. Met 'geactiveerd' bedoelen we dat het het gezicht je alert/energiek/gespannen doet voelen. Met 'niet geactiveerd' bedoelen we dat het gezicht je kalm/ontspannen/rustig doet voelen.,Helemaal niet geactiveerd,Zeer geactiveerd,stims\neutral_stims\id-1279_gender-F_age-19.png,19,F,,,,,,,,,,,,,,,,0,4,4,0,0,20,20,7,,,,,,,,,,,,,,,,,,,,,-1,1.643,,,,,,,,,02,F,False,False,2018_Oct_19_1144,pilot_RL,119.98741298707412,
rating,arousal,Hoe geactiveerd maakt dit gezicht je?,Je beoordeelt dit op een schaal van 'Helemaal niet geactiveerd' tot 'Zeer geactiveerd'. Met 'geactiveerd' bedoelen we dat het het gezicht je alert/energiek/gespannen doet voelen. Met 'niet geactiveerd' bedoelen we dat het gezicht je kalm/ontspannen/rustig doet voelen.,Helemaal niet geactiveerd,Zeer geactiveerd,stims\neutral_stims\id-1363_gender-M_age-19.png,19,M,,,,,,,,,,,,,,,,0,4,4,0,0,21,21,41,,,,,,,,,,,,,,,,,,,,,1,0.943,,,,,,,,,02,F,False,False,2018_Oct_19_1144,pilot_RL,119.98741298707412,
rating,arousal,Hoe geactiveerd maakt dit gezicht je?,Je beoordeelt dit op een schaal van 'Helemaal niet geactiveerd' tot 'Zeer geactiveerd'. Met 'geactiveerd' bedoelen we dat het het gezicht je alert/energiek/gespannen doet voelen. Met 'niet geactiveerd' bedoelen we dat het gezicht je kalm/ontspannen/rustig doet voelen.,Helemaal niet geactiveerd,Zeer geactiveerd,stims\neutral_stims\id-1323_gender-F_age-23.png,23,F,,,,,,,,,,,,,,,,0,4,4,0,0,22,22,26,,,,,,,,,,,,,,,,,,,,,1,1.868,,,,,,,,,02,F,False,False,2018_Oct_19_1144,pilot_RL,119.98741298707412,
rating,arousal,Hoe geactiveerd maakt dit gezicht je?,Je beoordeelt dit op een schaal van 'Helemaal niet geactiveerd' tot 'Zeer geactiveerd'. Met 'geactiveerd' bedoelen we dat het het gezicht je alert/energiek/gespannen doet voelen. Met 'niet geactiveerd' bedoelen we dat het gezicht je kalm/ontspannen/rustig doet voelen.,Helemaal niet geactiveerd,Zeer geactiveerd,stims\neutral_stims\id-1311_gender-F_age-22.png,22,F,,,,,,,,,,,,,,,,0,4,4,0,0,23,23,23,,,,,,,,,,,,,,,,,,,,,0,6.027,,,,,,,,,02,F,False,False,2018_Oct_19_1144,pilot_RL,119.98741298707412,
rating,arousal,Hoe geactiveerd maakt dit gezicht je?,Je beoordeelt dit op een schaal van 'Helemaal niet geactiveerd' tot 'Zeer geactiveerd'. Met 'geactiveerd' bedoelen we dat het het gezicht je alert/energiek/gespannen doet voelen. Met 'niet geactiveerd' bedoelen we dat het gezicht je kalm/ontspannen/rustig doet voelen.,Helemaal niet geactiveerd,Zeer geactiveerd,stims\neutral_stims\id-1380_gender-F_age-21.png,21,F,,,,,,,,,,,,,,,,0,4,4,0,0,24,24,49,,,,,,,,,,,,,,,,,,,,,0,0.901,,,,,,,,,02,F,False,False,2018_Oct_19_1144,pilot_RL,119.98741298707412,
rating,arousal,Hoe geactiveerd maakt dit gezicht je?,Je beoordeelt dit op een schaal van 'Helemaal niet geactiveerd' tot 'Zeer geactiveerd'. Met 'geactiveerd' bedoelen we dat het het gezicht je alert/energiek/gespannen doet voelen. Met 'niet geactiveerd' bedoelen we dat het gezicht je kalm/ontspannen/rustig doet voelen.,Helemaal niet geactiveerd,Zeer geactiveerd,stims\neutral_stims\id-1294_gender-F_age-26.png,26,F,,,,,,,,,,,,,,,,0,4,4,0,0,25,25,14,,,,,,,,,,,,,,,,,,,,,0,0.893,,,,,,,,,02,F,False,False,2018_Oct_19_1144,pilot_RL,119.98741298707412,
rating,arousal,Hoe geactiveerd maakt dit gezicht je?,Je beoordeelt dit op een schaal van 'Helemaal niet geactiveerd' tot 'Zeer geactiveerd'. Met 'geactiveerd' bedoelen we dat het het gezicht je alert/energiek/gespannen doet voelen. Met 'niet geactiveerd' bedoelen we dat het gezicht je kalm/ontspannen/rustig doet voelen.,Helemaal niet geactiveerd,Zeer geactiveerd,stims\neutral_stims\id-1295_gender-F_age-26.png,26,F,,,,,,,,,,,,,,,,0,4,4,0,0,26,26,15,,,,,,,,,,,,,,,,,,,,,0,1.176,,,,,,,,,02,F,False,False,2018_Oct_19_1144,pilot_RL,119.98741298707412,
rating,arousal,Hoe geactiveerd maakt dit gezicht je?,Je beoordeelt dit op een schaal van 'Helemaal niet geactiveerd' tot 'Zeer geactiveerd'. Met 'geactiveerd' bedoelen we dat het het gezicht je alert/energiek/gespannen doet voelen. Met 'niet geactiveerd' bedoelen we dat het gezicht je kalm/ontspannen/rustig doet voelen.,Helemaal niet geactiveerd,Zeer geactiveerd,stims\neutral_stims\id-1376_gender-F_age-19.png,19,F,,,,,,,,,,,,,,,,0,4,4,0,0,27,27,46,,,,,,,,,,,,,,,,,,,,,0,1.068,,,,,,,,,02,F,False,False,2018_Oct_19_1144,pilot_RL,119.98741298707412,
rating,arousal,Hoe geactiveerd maakt dit gezicht je?,Je beoordeelt dit op een schaal van 'Helemaal niet geactiveerd' tot 'Zeer geactiveerd'. Met 'geactiveerd' bedoelen we dat het het gezicht je alert/energiek/gespannen doet voelen. Met 'niet geactiveerd' bedoelen we dat het gezicht je kalm/ontspannen/rustig doet voelen.,Helemaal niet geactiveerd,Zeer geactiveerd,stims\neutral_stims\id-1273_gender-F_age-20.png,20,F,,,,,,,,,,,,,,,,0,4,4,0,0,28,28,5,,,,,,,,,,,,,,,,,,,,,0,0.884,,,,,,,,,02,F,False,False,2018_Oct_19_1144,pilot_RL,119.98741298707412,
rating,arousal,Hoe geactiveerd maakt dit gezicht je?,Je beoordeelt dit op een schaal van 'Helemaal niet geactiveerd' tot 'Zeer geactiveerd'. Met 'geactiveerd' bedoelen we dat het het gezicht je alert/energiek/gespannen doet voelen. Met 'niet geactiveerd' bedoelen we dat het gezicht je kalm/ontspannen/rustig doet voelen.,Helemaal niet geactiveerd,Zeer geactiveerd,stims\neutral_stims\id-1306_gender-F_age-21.png,21,F,,,,,,,,,,,,,,,,0,4,4,0,0,29,29,19,,,,,,,,,,,,,,,,,,,,,0,0.843,,,,,,,,,02,F,False,False,2018_Oct_19_1144,pilot_RL,119.98741298707412,
rating,arousal,Hoe geactiveerd maakt dit gezicht je?,Je beoordeelt dit op een schaal van 'Helemaal niet geactiveerd' tot 'Zeer geactiveerd'. Met 'geactiveerd' bedoelen we dat het het gezicht je alert/energiek/gespannen doet voelen. Met 'niet geactiveerd' bedoelen we dat het gezicht je kalm/ontspannen/rustig doet voelen.,Helemaal niet geactiveerd,Zeer geactiveerd,stims\neutral_stims\id-1355_gender-F_age-19.png,19,F,,,,,,,,,,,,,,,,0,4,4,0,0,30,30,35,,,,,,,,,,,,,,,,,,,,,0,0.909,,,,,,,,,02,F,False,False,2018_Oct_19_1144,pilot_RL,119.98741298707412,
rating,arousal,Hoe geactiveerd maakt dit gezicht je?,Je beoordeelt dit op een schaal van 'Helemaal niet geactiveerd' tot 'Zeer geactiveerd'. Met 'geactiveerd' bedoelen we dat het het gezicht je alert/energiek/gespannen doet voelen. Met 'niet geactiveerd' bedoelen we dat het gezicht je kalm/ontspannen/rustig doet voelen.,Helemaal niet geactiveerd,Zeer geactiveerd,stims\neutral_stims\id-1347_gender-F_age-27.png,27,F,,,,,,,,,,,,,,,,0,4,4,0,0,31,31,33,,,,,,,,,,,,,,,,,,,,,0,0.926,,,,,,,,,02,F,False,False,2018_Oct_19_1144,pilot_RL,119.98741298707412,
rating,arousal,Hoe geactiveerd maakt dit gezicht je?,Je beoordeelt dit op een schaal van 'Helemaal niet geactiveerd' tot 'Zeer geactiveerd'. Met 'geactiveerd' bedoelen we dat het het gezicht je alert/energiek/gespannen doet voelen. Met 'niet geactiveerd' bedoelen we dat het gezicht je kalm/ontspannen/rustig doet voelen.,Helemaal niet geactiveerd,Zeer geactiveerd,stims\neutral_stims\id-1354_gender-F_age-23.png,23,F,,,,,,,,,,,,,,,,0,4,4,0,0,32,32,34,,,,,,,,,,,,,,,,,,,,,0,1.609,,,,,,,,,02,F,False,False,2018_Oct_19_1144,pilot_RL,119.98741298707412,
rating,arousal,Hoe geactiveerd maakt dit gezicht je?,Je beoordeelt dit op een schaal van 'Helemaal niet geactiveerd' tot 'Zeer geactiveerd'. Met 'geactiveerd' bedoelen we dat het het gezicht je alert/energiek/gespannen doet voelen. Met 'niet geactiveerd' bedoelen we dat het gezicht je kalm/ontspannen/rustig doet voelen.,Helemaal niet geactiveerd,Zeer geactiveerd,stims\neutral_stims\id-1378_gender-F_age-19.png,19,F,,,,,,,,,,,,,,,,0,4,4,0,0,33,33,48,,,,,,,,,,,,,,,,,,,,,1,4.485,,,,,,,,,02,F,False,False,2018_Oct_19_1144,pilot_RL,119.98741298707412,
rating,arousal,Hoe geactiveerd maakt dit gezicht je?,Je beoordeelt dit op een schaal van 'Helemaal niet geactiveerd' tot 'Zeer geactiveerd'. Met 'geactiveerd' bedoelen we dat het het gezicht je alert/energiek/gespannen doet voelen. Met 'niet geactiveerd' bedoelen we dat het gezicht je kalm/ontspannen/rustig doet voelen.,Helemaal niet geactiveerd,Zeer geactiveerd,stims\neutral_stims\id-1296_gender-F_age-23.png,23,F,,,,,,,,,,,,,,,,0,4,4,0,0,34,34,16,,,,,,,,,,,,,,,,,,,,,0,0.868,,,,,,,,,02,F,False,False,2018_Oct_19_1144,pilot_RL,119.98741298707412,
rating,arousal,Hoe geactiveerd maakt dit gezicht je?,Je beoordeelt dit op een schaal van 'Helemaal niet geactiveerd' tot 'Zeer geactiveerd'. Met 'geactiveerd' bedoelen we dat het het gezicht je alert/energiek/gespannen doet voelen. Met 'niet geactiveerd' bedoelen we dat het gezicht je kalm/ontspannen/rustig doet voelen.,Helemaal niet geactiveerd,Zeer geactiveerd,stims\neutral_stims\id-1266_gender-M_age-21.png,21,M,,,,,,,,,,,,,,,,0,4,4,0,0,35,35,2,,,,,,,,,,,,,,,,,,,,,0,3.043,,,,,,,,,02,F,False,False,2018_Oct_19_1144,pilot_RL,119.98741298707412,
rating,arousal,Hoe geactiveerd maakt dit gezicht je?,Je beoordeelt dit op een schaal van 'Helemaal niet geactiveerd' tot 'Zeer geactiveerd'. Met 'geactiveerd' bedoelen we dat het het gezicht je alert/energiek/gespannen doet voelen. Met 'niet geactiveerd' bedoelen we dat het gezicht je kalm/ontspannen/rustig doet voelen.,Helemaal niet geactiveerd,Zeer geactiveerd,stims\neutral_stims\id-1342_gender-M_age-19.png,19,M,,,,,,,,,,,,,,,,0,4,4,0,0,36,36,30,,,,,,,,,,,,,,,,,,,,,2,1.726,,,,,,,,,02,F,False,False,2018_Oct_19_1144,pilot_RL,119.98741298707412,
rating,arousal,Hoe geactiveerd maakt dit gezicht je?,Je beoordeelt dit op een schaal van 'Helemaal niet geactiveerd' tot 'Zeer geactiveerd'. Met 'geactiveerd' bedoelen we dat het het gezicht je alert/energiek/gespannen doet voelen. Met 'niet geactiveerd' bedoelen we dat het gezicht je kalm/ontspannen/rustig doet voelen.,Helemaal niet geactiveerd,Zeer geactiveerd,stims\neutral_stims\id-1318_gender-M_age-35.png,35,M,,,,,,,,,,,,,,,,0,4,4,0,0,37,37,25,,,,,,,,,,,,,,,,,,,,,1,0.759,,,,,,,,,02,F,False,False,2018_Oct_19_1144,pilot_RL,119.98741298707412,
rating,arousal,Hoe geactiveerd maakt dit gezicht je?,Je beoordeelt dit op een schaal van 'Helemaal niet geactiveerd' tot 'Zeer geactiveerd'. Met 'geactiveerd' bedoelen we dat het het gezicht je alert/energiek/gespannen doet voelen. Met 'niet geactiveerd' bedoelen we dat het gezicht je kalm/ontspannen/rustig doet voelen.,Helemaal niet geactiveerd,Zeer geactiveerd,stims\neutral_stims\id-1293_gender-F_age-31.png,31,F,,,,,,,,,,,,,,,,0,4,4,0,0,38,38,13,,,,,,,,,,,,,,,,,,,,,1,1.143,,,,,,,,,02,F,False,False,2018_Oct_19_1144,pilot_RL,119.98741298707412,
rating,arousal,Hoe geactiveerd maakt dit gezicht je?,Je beoordeelt dit op een schaal van 'Helemaal niet geactiveerd' tot 'Zeer geactiveerd'. Met 'geactiveerd' bedoelen we dat het het gezicht je alert/energiek/gespannen doet voelen. Met 'niet geactiveerd' bedoelen we dat het gezicht je kalm/ontspannen/rustig doet voelen.,Helemaal niet geactiveerd,Zeer geactiveerd,stims\neutral_stims\id-1345_gender-M_age-18.png,18,M,,,,,,,,,,,,,,,,0,4,4,0,0,39,39,32,,,,,,,,,,,,,,,,,,,,,0,1.084,,,,,,,,,02,F,False,False,2018_Oct_19_1144,pilot_RL,119.98741298707412,
rating,arousal,Hoe geactiveerd maakt dit gezicht je?,Je beoordeelt dit op een schaal van 'Helemaal niet geactiveerd' tot 'Zeer geactiveerd'. Met 'geactiveerd' bedoelen we dat het het gezicht je alert/energiek/gespannen doet voelen. Met 'niet geactiveerd' bedoelen we dat het gezicht je kalm/ontspannen/rustig doet voelen.,Helemaal niet geactiveerd,Zeer geactiveerd,stims\neutral_stims\id-1307_gender-F_age-22.png,22,F,,,,,,,,,,,,,,,,0,4,4,0,0,40,40,20,,,,,,,,,,,,,,,,,,,,,0,1.101,,,,,,,,,02,F,False,False,2018_Oct_19_1144,pilot_RL,119.98741298707412,
rating,arousal,Hoe geactiveerd maakt dit gezicht je?,Je beoordeelt dit op een schaal van 'Helemaal niet geactiveerd' tot 'Zeer geactiveerd'. Met 'geactiveerd' bedoelen we dat het het gezicht je alert/energiek/gespannen doet voelen. Met 'niet geactiveerd' bedoelen we dat het gezicht je kalm/ontspannen/rustig doet voelen.,Helemaal niet geactiveerd,Zeer geactiveerd,stims\neutral_stims\id-1285_gender-F_age-19.png,19,F,,,,,,,,,,,,,,,,0,4,4,0,0,41,41,9,,,,,,,,,,,,,,,,,,,,,-2,1.476,,,,,,,,,02,F,False,False,2018_Oct_19_1144,pilot_RL,119.98741298707412,
rating,arousal,Hoe geactiveerd maakt dit gezicht je?,Je beoordeelt dit op een schaal van 'Helemaal niet geactiveerd' tot 'Zeer geactiveerd'. Met 'geactiveerd' bedoelen we dat het het gezicht je alert/energiek/gespannen doet voelen. Met 'niet geactiveerd' bedoelen we dat het gezicht je kalm/ontspannen/rustig doet voelen.,Helemaal niet geactiveerd,Zeer geactiveerd,stims\neutral_stims\id-1360_gender-F_age-20.png,20,F,,,,,,,,,,,,,,,,0,4,4,0,0,42,42,38,,,,,,,,,,,,,,,,,,,,,-2,1.551,,,,,,,,,02,F,False,False,2018_Oct_19_1144,pilot_RL,119.98741298707412,
rating,arousal,Hoe geactiveerd maakt dit gezicht je?,Je beoordeelt dit op een schaal van 'Helemaal niet geactiveerd' tot 'Zeer geactiveerd'. Met 'geactiveerd' bedoelen we dat het het gezicht je alert/energiek/gespannen doet voelen. Met 'niet geactiveerd' bedoelen we dat het gezicht je kalm/ontspannen/rustig doet voelen.,Helemaal niet geactiveerd,Zeer geactiveerd,stims\neutral_stims\id-1366_gender-F_age-24.png,24,F,,,,,,,,,,,,,,,,0,4,4,0,0,43,43,42,,,,,,,,,,,,,,,,,,,,,-1,2.476,,,,,,,,,02,F,False,False,2018_Oct_19_1144,pilot_RL,119.98741298707412,
rating,arousal,Hoe geactiveerd maakt dit gezicht je?,Je beoordeelt dit op een schaal van 'Helemaal niet geactiveerd' tot 'Zeer geactiveerd'. Met 'geactiveerd' bedoelen we dat het het gezicht je alert/energiek/gespannen doet voelen. Met 'niet geactiveerd' bedoelen we dat het gezicht je kalm/ontspannen/rustig doet voelen.,Helemaal niet geactiveerd,Zeer geactiveerd,stims\neutral_stims\id-1358_gender-F_age-32.png,32,F,,,,,,,,,,,,,,,,0,4,4,0,0,44,44,37,,,,,,,,,,,,,,,,,,,,,0,1.709,,,,,,,,,02,F,False,False,2018_Oct_19_1144,pilot_RL,119.98741298707412,
rating,arousal,Hoe geactiveerd maakt dit gezicht je?,Je beoordeelt dit op een schaal van 'Helemaal niet geactiveerd' tot 'Zeer geactiveerd'. Met 'geactiveerd' bedoelen we dat het het gezicht je alert/energiek/gespannen doet voelen. Met 'niet geactiveerd' bedoelen we dat het gezicht je kalm/ontspannen/rustig doet voelen.,Helemaal niet geactiveerd,Zeer geactiveerd,stims\neutral_stims\id-1356_gender-F_age-20.png,20,F,,,,,,,,,,,,,,,,0,4,4,0,0,45,45,36,,,,,,,,,,,,,,,,,,,,,-1,1.268,,,,,,,,,02,F,False,False,2018_Oct_19_1144,pilot_RL,119.98741298707412,
rating,arousal,Hoe geactiveerd maakt dit gezicht je?,Je beoordeelt dit op een schaal van 'Helemaal niet geactiveerd' tot 'Zeer geactiveerd'. Met 'geactiveerd' bedoelen we dat het het gezicht je alert/energiek/gespannen doet voelen. Met 'niet geactiveerd' bedoelen we dat het gezicht je kalm/ontspannen/rustig doet voelen.,Helemaal niet geactiveerd,Zeer geactiveerd,stims\neutral_stims\id-1309_gender-M_age-22.png,22,M,,,,,,,,,,,,,,,,0,4,4,0,0,46,46,21,,,,,,,,,,,,,,,,,,,,,-1,1.518,,,,,,,,,02,F,False,False,2018_Oct_19_1144,pilot_RL,119.98741298707412,
