reward_choice	left_face	right_face	correct_resp	RT	actual_resp	correct	session
80_vs_20	id-1269_gender-F_age-23_rewardprob-80_session-plusneu.png	id-1291_gender-F_age-24_rewardprob-20_session-plusneu.png	f	2.0002446869621053	f	1.0	plusneu
80_vs_20	id-1269_gender-F_age-23_rewardprob-80_session-plusneu.png	id-1291_gender-F_age-24_rewardprob-20_session-plusneu.png	f	1.7336643689777702	f	1.0	plusneu
64_vs_36	id-1274_gender-F_age-33_rewardprob-64_session-plusneu.png	id-1360_gender-F_age-20_rewardprob-36_session-plusneu.png	j	1.73531223309692	j	1.0	plusneu
64_vs_36	id-1274_gender-F_age-33_rewardprob-64_session-plusneu.png	id-1360_gender-F_age-20_rewardprob-36_session-plusneu.png	f	1.2687064879573882	j	0.0	plusneu
64_vs_36	id-1360_gender-F_age-20_rewardprob-36_session-plusneu.png	id-1274_gender-F_age-33_rewardprob-64_session-plusneu.png	j	1.300174824078567	f	0.0	plusneu
80_vs_20	id-1269_gender-F_age-23_rewardprob-80_session-plusneu.png	id-1291_gender-F_age-24_rewardprob-20_session-plusneu.png	f	1.1669816509820519	f	1.0	plusneu
80_vs_20	id-1291_gender-F_age-24_rewardprob-20_session-plusneu.png	id-1269_gender-F_age-23_rewardprob-80_session-plusneu.png	j	1.1669500889256597	j	1.0	plusneu
80_vs_20	id-1291_gender-F_age-24_rewardprob-20_session-plusneu.png	id-1269_gender-F_age-23_rewardprob-80_session-plusneu.png	j	1.2335465649375692	j	1.0	plusneu
64_vs_36	id-1274_gender-F_age-33_rewardprob-64_session-plusneu.png	id-1360_gender-F_age-20_rewardprob-36_session-plusneu.png	j	2.03370928298682	f	0.0	plusneu
64_vs_36	id-1360_gender-F_age-20_rewardprob-36_session-plusneu.png	id-1274_gender-F_age-33_rewardprob-64_session-plusneu.png	j	1.4334787590196356	j	1.0	plusneu
64_vs_36	id-1360_gender-F_age-20_rewardprob-36_session-plusneu.png	id-1274_gender-F_age-33_rewardprob-64_session-plusneu.png	f	1.1336562680080533	j	0.0	plusneu
64_vs_36	id-1360_gender-F_age-20_rewardprob-36_session-plusneu.png	id-1274_gender-F_age-33_rewardprob-64_session-plusneu.png	j	1.5002886120928451	j	1.0	plusneu
80_vs_20	id-1291_gender-F_age-24_rewardprob-20_session-plusneu.png	id-1269_gender-F_age-23_rewardprob-80_session-plusneu.png	f	1.4355504469713196	j	0.0	plusneu
64_vs_36	id-1360_gender-F_age-20_rewardprob-36_session-plusneu.png	id-1274_gender-F_age-33_rewardprob-64_session-plusneu.png	f	1.5336386599810794	j	0.0	plusneu
64_vs_36	id-1360_gender-F_age-20_rewardprob-36_session-plusneu.png	id-1274_gender-F_age-33_rewardprob-64_session-plusneu.png	f	1.2000255070161074	f	1.0	plusneu
80_vs_20	id-1269_gender-F_age-23_rewardprob-80_session-plusneu.png	id-1291_gender-F_age-24_rewardprob-20_session-plusneu.png	f	1.533553628018126	f	1.0	plusneu
64_vs_36	id-1360_gender-F_age-20_rewardprob-36_session-plusneu.png	id-1274_gender-F_age-33_rewardprob-64_session-plusneu.png	j	1.0336180909071118	f	0.0	plusneu
80_vs_20	id-1291_gender-F_age-24_rewardprob-20_session-plusneu.png	id-1269_gender-F_age-23_rewardprob-80_session-plusneu.png	f	1.2336204149760306	j	0.0	plusneu
64_vs_36	id-1360_gender-F_age-20_rewardprob-36_session-plusneu.png	id-1274_gender-F_age-33_rewardprob-64_session-plusneu.png	j	1.2335904979845511	f	0.0	plusneu
64_vs_36	id-1274_gender-F_age-33_rewardprob-64_session-plusneu.png	id-1360_gender-F_age-20_rewardprob-36_session-plusneu.png	f	0.9335810620104894	f	1.0	plusneu
64_vs_36	id-1274_gender-F_age-33_rewardprob-64_session-plusneu.png	id-1360_gender-F_age-20_rewardprob-36_session-plusneu.png	j	0.7335776980035007	f	0.0	plusneu
80_vs_20	id-1291_gender-F_age-24_rewardprob-20_session-plusneu.png	id-1269_gender-F_age-23_rewardprob-80_session-plusneu.png	f	1.86698566400446	j	0.0	plusneu
64_vs_36	id-1274_gender-F_age-33_rewardprob-64_session-plusneu.png	id-1360_gender-F_age-20_rewardprob-36_session-plusneu.png	f	1.3336475640535357	f	1.0	plusneu
64_vs_36	id-1274_gender-F_age-33_rewardprob-64_session-plusneu.png	id-1360_gender-F_age-20_rewardprob-36_session-plusneu.png	j	0.735120614990592	f	0.0	plusneu
64_vs_36	id-1360_gender-F_age-20_rewardprob-36_session-plusneu.png	id-1274_gender-F_age-33_rewardprob-64_session-plusneu.png	j	1.4336949109565469	j	1.0	plusneu
64_vs_36	id-1274_gender-F_age-33_rewardprob-64_session-plusneu.png	id-1360_gender-F_age-20_rewardprob-36_session-plusneu.png	f	1.0004027220420542	f	1.0	plusneu
80_vs_20	id-1269_gender-F_age-23_rewardprob-80_session-plusneu.png	id-1291_gender-F_age-24_rewardprob-20_session-plusneu.png	f	1.6668625880265608	f	1.0	plusneu
80_vs_20	id-1291_gender-F_age-24_rewardprob-20_session-plusneu.png	id-1269_gender-F_age-23_rewardprob-80_session-plusneu.png	j	0.8004894480109215	f	0.0	plusneu
64_vs_36	id-1360_gender-F_age-20_rewardprob-36_session-plusneu.png	id-1274_gender-F_age-33_rewardprob-64_session-plusneu.png	f	1.3334726510802284	j	0.0	plusneu
80_vs_20	id-1291_gender-F_age-24_rewardprob-20_session-plusneu.png	id-1269_gender-F_age-23_rewardprob-80_session-plusneu.png	j	0.8670440169516951	j	1.0	plusneu
80_vs_20	id-1269_gender-F_age-23_rewardprob-80_session-plusneu.png	id-1291_gender-F_age-24_rewardprob-20_session-plusneu.png	f	2.0003390229539946	f	1.0	plusneu
80_vs_20	id-1269_gender-F_age-23_rewardprob-80_session-plusneu.png	id-1291_gender-F_age-24_rewardprob-20_session-plusneu.png	j	1.8334063109941783	f	0.0	plusneu
64_vs_36	id-1360_gender-F_age-20_rewardprob-36_session-plusneu.png	id-1274_gender-F_age-33_rewardprob-64_session-plusneu.png	j	1.565541310003027	f	0.0	plusneu
80_vs_20	id-1269_gender-F_age-23_rewardprob-80_session-plusneu.png	id-1291_gender-F_age-24_rewardprob-20_session-plusneu.png	f	0.7647593850269914	f	1.0	plusneu
80_vs_20	id-1269_gender-F_age-23_rewardprob-80_session-plusneu.png	id-1291_gender-F_age-24_rewardprob-20_session-plusneu.png	f	1.43372890597675	f	1.0	plusneu
80_vs_20	id-1291_gender-F_age-24_rewardprob-20_session-plusneu.png	id-1269_gender-F_age-23_rewardprob-80_session-plusneu.png	j	0.7349318059859797	j	1.0	plusneu
80_vs_20	id-1291_gender-F_age-24_rewardprob-20_session-plusneu.png	id-1269_gender-F_age-23_rewardprob-80_session-plusneu.png	j	1.2645079469075426	j	1.0	plusneu
64_vs_36	id-1274_gender-F_age-33_rewardprob-64_session-plusneu.png	id-1360_gender-F_age-20_rewardprob-36_session-plusneu.png	f	1.7682976550422609	f	1.0	plusneu
80_vs_20	id-1291_gender-F_age-24_rewardprob-20_session-plusneu.png	id-1269_gender-F_age-23_rewardprob-80_session-plusneu.png	f	1.6337596810190007	j	0.0	plusneu
80_vs_20	id-1269_gender-F_age-23_rewardprob-80_session-plusneu.png	id-1291_gender-F_age-24_rewardprob-20_session-plusneu.png	f	0.8337488769320771	j	0.0	plusneu
64_vs_36	id-1360_gender-F_age-20_rewardprob-36_session-plusneu.png	id-1274_gender-F_age-33_rewardprob-64_session-plusneu.png	f	1.0997942860703915	f	1.0	plusneu
64_vs_36	id-1360_gender-F_age-20_rewardprob-36_session-plusneu.png	id-1274_gender-F_age-33_rewardprob-64_session-plusneu.png	j	0.5336566189071164	f	0.0	plusneu
64_vs_36	id-1274_gender-F_age-33_rewardprob-64_session-plusneu.png	id-1360_gender-F_age-20_rewardprob-36_session-plusneu.png	j	1.6336796210380269	j	1.0	plusneu
80_vs_20	id-1269_gender-F_age-23_rewardprob-80_session-plusneu.png	id-1291_gender-F_age-24_rewardprob-20_session-plusneu.png	f	1.1336878519505262	f	1.0	plusneu
64_vs_36	id-1274_gender-F_age-33_rewardprob-64_session-plusneu.png	id-1360_gender-F_age-20_rewardprob-36_session-plusneu.png	f	0.4336394519777969	f	1.0	plusneu
64_vs_36	id-1274_gender-F_age-33_rewardprob-64_session-plusneu.png	id-1360_gender-F_age-20_rewardprob-36_session-plusneu.png	f	0.6668864989187568	f	1.0	plusneu
64_vs_36	id-1360_gender-F_age-20_rewardprob-36_session-plusneu.png	id-1274_gender-F_age-33_rewardprob-64_session-plusneu.png	f	1.2669551250291988	j	0.0	plusneu
64_vs_36	id-1360_gender-F_age-20_rewardprob-36_session-plusneu.png	id-1274_gender-F_age-33_rewardprob-64_session-plusneu.png	f	0.6679750870680436	j	0.0	plusneu
64_vs_36	id-1360_gender-F_age-20_rewardprob-36_session-plusneu.png	id-1274_gender-F_age-33_rewardprob-64_session-plusneu.png	j	0.4669690090231597	j	1.0	plusneu
64_vs_36	id-1274_gender-F_age-33_rewardprob-64_session-plusneu.png	id-1360_gender-F_age-20_rewardprob-36_session-plusneu.png	f	0.8668940310599282	f	1.0	plusneu
80_vs_20	id-1291_gender-F_age-24_rewardprob-20_session-plusneu.png	id-1269_gender-F_age-23_rewardprob-80_session-plusneu.png	j	0.8002323519904166	j	1.0	plusneu
80_vs_20	id-1269_gender-F_age-23_rewardprob-80_session-plusneu.png	id-1291_gender-F_age-24_rewardprob-20_session-plusneu.png	f	1.2669785580364987	f	1.0	plusneu
64_vs_36	id-1274_gender-F_age-33_rewardprob-64_session-plusneu.png	id-1360_gender-F_age-20_rewardprob-36_session-plusneu.png	j	0.8676874680677429	f	0.0	plusneu
80_vs_20	id-1269_gender-F_age-23_rewardprob-80_session-plusneu.png	id-1291_gender-F_age-24_rewardprob-20_session-plusneu.png	f	0.6669618720188737	f	1.0	plusneu
80_vs_20	id-1269_gender-F_age-23_rewardprob-80_session-plusneu.png	id-1291_gender-F_age-24_rewardprob-20_session-plusneu.png	j	1.3012928960379213	f	0.0	plusneu
64_vs_36	id-1274_gender-F_age-33_rewardprob-64_session-plusneu.png	id-1360_gender-F_age-20_rewardprob-36_session-plusneu.png	j	0.701575665967539	f	0.0	plusneu
64_vs_36	id-1360_gender-F_age-20_rewardprob-36_session-plusneu.png	id-1274_gender-F_age-33_rewardprob-64_session-plusneu.png	j	1.4003679900197312	j	1.0	plusneu
80_vs_20	id-1269_gender-F_age-23_rewardprob-80_session-plusneu.png	id-1291_gender-F_age-24_rewardprob-20_session-plusneu.png	f	0.9335269819712266	f	1.0	plusneu
80_vs_20	id-1291_gender-F_age-24_rewardprob-20_session-plusneu.png	id-1269_gender-F_age-23_rewardprob-80_session-plusneu.png	j	0.7669591370504351	j	1.0	plusneu
64_vs_36	id-1360_gender-F_age-20_rewardprob-36_session-plusneu.png	id-1274_gender-F_age-33_rewardprob-64_session-plusneu.png	j	1.1669573970139029	j	1.0	plusneu
80_vs_20	id-1291_gender-F_age-24_rewardprob-20_session-plusneu.png	id-1269_gender-F_age-23_rewardprob-80_session-plusneu.png	j	0.6660268410341814	j	1.0	plusneu
80_vs_20	id-1269_gender-F_age-23_rewardprob-80_session-plusneu.png	id-1291_gender-F_age-24_rewardprob-20_session-plusneu.png	j	1.167171371052973	j	1.0	plusneu
64_vs_36	id-1360_gender-F_age-20_rewardprob-36_session-plusneu.png	id-1274_gender-F_age-33_rewardprob-64_session-plusneu.png	f	1.100266876979731	f	1.0	plusneu
64_vs_36	id-1274_gender-F_age-33_rewardprob-64_session-plusneu.png	id-1360_gender-F_age-20_rewardprob-36_session-plusneu.png	f	0.6335798030486329	f	1.0	plusneu
80_vs_20	id-1291_gender-F_age-24_rewardprob-20_session-plusneu.png	id-1269_gender-F_age-23_rewardprob-80_session-plusneu.png	j	1.0007997319335118	f	0.0	plusneu
64_vs_36	id-1274_gender-F_age-33_rewardprob-64_session-plusneu.png	id-1360_gender-F_age-20_rewardprob-36_session-plusneu.png	f	0.4669438099954277	j	0.0	plusneu
80_vs_20	id-1291_gender-F_age-24_rewardprob-20_session-plusneu.png	id-1269_gender-F_age-23_rewardprob-80_session-plusneu.png	j	0.8668372409883887	f	0.0	plusneu
64_vs_36	id-1360_gender-F_age-20_rewardprob-36_session-plusneu.png	id-1274_gender-F_age-33_rewardprob-64_session-plusneu.png	j	1.0002949989866463	f	0.0	plusneu
64_vs_36	id-1274_gender-F_age-33_rewardprob-64_session-plusneu.png	id-1360_gender-F_age-20_rewardprob-36_session-plusneu.png	f	1.5005009659798816	f	1.0	plusneu
64_vs_36	id-1274_gender-F_age-33_rewardprob-64_session-plusneu.png	id-1360_gender-F_age-20_rewardprob-36_session-plusneu.png	f	1.8337394840782508	j	0.0	plusneu
80_vs_20	id-1269_gender-F_age-23_rewardprob-80_session-plusneu.png	id-1291_gender-F_age-24_rewardprob-20_session-plusneu.png	f	0.7669138479977846	f	1.0	plusneu
80_vs_20	id-1269_gender-F_age-23_rewardprob-80_session-plusneu.png	id-1291_gender-F_age-24_rewardprob-20_session-plusneu.png	f	1.0003214390017092	f	1.0	plusneu
80_vs_20	id-1269_gender-F_age-23_rewardprob-80_session-plusneu.png	id-1291_gender-F_age-24_rewardprob-20_session-plusneu.png	j	0.5670109969796613	f	0.0	plusneu
80_vs_20	id-1291_gender-F_age-24_rewardprob-20_session-plusneu.png	id-1269_gender-F_age-23_rewardprob-80_session-plusneu.png	j	0.8690815329318866	j	1.0	plusneu
64_vs_36	id-1360_gender-F_age-20_rewardprob-36_session-plusneu.png	id-1274_gender-F_age-33_rewardprob-64_session-plusneu.png	j	1.333557867910713	j	1.0	plusneu
80_vs_20	id-1291_gender-F_age-24_rewardprob-20_session-plusneu.png	id-1269_gender-F_age-23_rewardprob-80_session-plusneu.png	j	1.4668491379125044	f	0.0	plusneu
80_vs_20	id-1291_gender-F_age-24_rewardprob-20_session-plusneu.png	id-1269_gender-F_age-23_rewardprob-80_session-plusneu.png	j	1.33358545799274	j	1.0	plusneu
80_vs_20	id-1291_gender-F_age-24_rewardprob-20_session-plusneu.png	id-1269_gender-F_age-23_rewardprob-80_session-plusneu.png	j	1.3002233980223536	f	0.0	plusneu
80_vs_20	id-1269_gender-F_age-23_rewardprob-80_session-plusneu.png	id-1291_gender-F_age-24_rewardprob-20_session-plusneu.png	f	0.8671688949689269	f	1.0	plusneu
80_vs_20	id-1291_gender-F_age-24_rewardprob-20_session-plusneu.png	id-1269_gender-F_age-23_rewardprob-80_session-plusneu.png	j	0.5002996460534632	f	0.0	plusneu
64_vs_36	id-1274_gender-F_age-33_rewardprob-64_session-plusneu.png	id-1360_gender-F_age-20_rewardprob-36_session-plusneu.png	f	1.5002640340244398	f	1.0	plusneu
64_vs_36	id-1274_gender-F_age-33_rewardprob-64_session-plusneu.png	id-1360_gender-F_age-20_rewardprob-36_session-plusneu.png	j	0.6669659519102424	f	0.0	plusneu
80_vs_20	id-1269_gender-F_age-23_rewardprob-80_session-plusneu.png	id-1291_gender-F_age-24_rewardprob-20_session-plusneu.png	f	0.7003149619558826	f	1.0	plusneu
64_vs_36	id-1360_gender-F_age-20_rewardprob-36_session-plusneu.png	id-1274_gender-F_age-33_rewardprob-64_session-plusneu.png	f	1.7338594920001924	j	0.0	plusneu
64_vs_36	id-1360_gender-F_age-20_rewardprob-36_session-plusneu.png	id-1274_gender-F_age-33_rewardprob-64_session-plusneu.png	j	0.7670746109215543	j	1.0	plusneu
80_vs_20	id-1269_gender-F_age-23_rewardprob-80_session-plusneu.png	id-1291_gender-F_age-24_rewardprob-20_session-plusneu.png	j	0.6002597699407488	f	0.0	plusneu
80_vs_20	id-1291_gender-F_age-24_rewardprob-20_session-plusneu.png	id-1269_gender-F_age-23_rewardprob-80_session-plusneu.png	f	1.100255743949674	j	0.0	plusneu
64_vs_36	id-1274_gender-F_age-33_rewardprob-64_session-plusneu.png	id-1360_gender-F_age-20_rewardprob-36_session-plusneu.png	f	0.9337072399212047	j	0.0	plusneu
64_vs_36	id-1274_gender-F_age-33_rewardprob-64_session-plusneu.png	id-1360_gender-F_age-20_rewardprob-36_session-plusneu.png	f	1.3323921620612964	f	1.0	plusneu
80_vs_20	id-1291_gender-F_age-24_rewardprob-20_session-plusneu.png	id-1269_gender-F_age-23_rewardprob-80_session-plusneu.png	j	1.1669186089420691	j	1.0	plusneu
80_vs_20	id-1269_gender-F_age-23_rewardprob-80_session-plusneu.png	id-1291_gender-F_age-24_rewardprob-20_session-plusneu.png	f	1.2336550060426816	f	1.0	plusneu
80_vs_20	id-1291_gender-F_age-24_rewardprob-20_session-plusneu.png	id-1269_gender-F_age-23_rewardprob-80_session-plusneu.png	j	1.4002931580180302	j	1.0	plusneu
64_vs_36	id-1274_gender-F_age-33_rewardprob-64_session-plusneu.png	id-1360_gender-F_age-20_rewardprob-36_session-plusneu.png	f	1.267029702081345	f	1.0	plusneu
80_vs_20	id-1291_gender-F_age-24_rewardprob-20_session-plusneu.png	id-1269_gender-F_age-23_rewardprob-80_session-plusneu.png	j	1.33366483298596	j	1.0	plusneu
64_vs_36	id-1360_gender-F_age-20_rewardprob-36_session-plusneu.png	id-1274_gender-F_age-33_rewardprob-64_session-plusneu.png	j	1.2335835660342127	j	1.0	plusneu
80_vs_20	id-1269_gender-F_age-23_rewardprob-80_session-plusneu.png	id-1291_gender-F_age-24_rewardprob-20_session-plusneu.png	f	0.7002609800547361	f	1.0	plusneu
64_vs_36	id-1274_gender-F_age-33_rewardprob-64_session-plusneu.png	id-1360_gender-F_age-20_rewardprob-36_session-plusneu.png	j	1.0671081950422376	j	1.0	plusneu
80_vs_20	id-1269_gender-F_age-23_rewardprob-80_session-plusneu.png	id-1291_gender-F_age-24_rewardprob-20_session-plusneu.png	f	0.631690479000099	f	1.0	plusneu
80_vs_20	id-1291_gender-F_age-24_rewardprob-20_session-plusneu.png	id-1269_gender-F_age-23_rewardprob-80_session-plusneu.png	j	0.7669034519931301	j	1.0	plusneu
64_vs_36	id-1360_gender-F_age-20_rewardprob-36_session-plusneu.png	id-1274_gender-F_age-33_rewardprob-64_session-plusneu.png	j	1.433819590951316	j	1.0	plusneu
80_vs_20	id-1269_gender-F_age-23_rewardprob-80_session-plusneu.png	id-1291_gender-F_age-24_rewardprob-20_session-plusneu.png	f	0.6670082740020007	f	1.0	plusneu
80_vs_20	id-1291_gender-F_age-24_rewardprob-20_session-plusneu.png	id-1269_gender-F_age-23_rewardprob-80_session-plusneu.png	j	1.566993988933973	j	1.0	plusneu
80_vs_20	id-1291_gender-F_age-24_rewardprob-20_session-plusneu.png	id-1269_gender-F_age-23_rewardprob-80_session-plusneu.png	j	1.1669403919950128	j	1.0	plusneu
80_vs_20	id-1291_gender-F_age-24_rewardprob-20_session-plusneu.png	id-1269_gender-F_age-23_rewardprob-80_session-plusneu.png	j	0.8670597970485687	j	1.0	plusneu
80_vs_20	id-1269_gender-F_age-23_rewardprob-80_session-plusneu.png	id-1291_gender-F_age-24_rewardprob-20_session-plusneu.png	f	0.7668983188923448	f	1.0	plusneu
64_vs_36	id-1360_gender-F_age-20_rewardprob-36_session-plusneu.png	id-1274_gender-F_age-33_rewardprob-64_session-plusneu.png	f	1.2669965350069106	f	1.0	plusneu
80_vs_20	id-1269_gender-F_age-23_rewardprob-80_session-plusneu.png	id-1291_gender-F_age-24_rewardprob-20_session-plusneu.png	j	0.5670513240620494	f	0.0	plusneu
80_vs_20	id-1291_gender-F_age-24_rewardprob-20_session-plusneu.png	id-1269_gender-F_age-23_rewardprob-80_session-plusneu.png	j	2.1024173100013286	j	1.0	plusneu
64_vs_36	id-1360_gender-F_age-20_rewardprob-36_session-plusneu.png	id-1274_gender-F_age-33_rewardprob-64_session-plusneu.png	j	0.7669633700279519	j	1.0	plusneu
80_vs_20	id-1291_gender-F_age-24_rewardprob-20_session-plusneu.png	id-1269_gender-F_age-23_rewardprob-80_session-plusneu.png	j	0.6684889899333939	j	1.0	plusneu
64_vs_36	id-1274_gender-F_age-33_rewardprob-64_session-plusneu.png	id-1360_gender-F_age-20_rewardprob-36_session-plusneu.png	f	0.8002898079575971	f	1.0	plusneu
80_vs_20	id-1291_gender-F_age-24_rewardprob-20_session-plusneu.png	id-1269_gender-F_age-23_rewardprob-80_session-plusneu.png	j	1.3335613050730901	j	1.0	plusneu
64_vs_36	id-1274_gender-F_age-33_rewardprob-64_session-plusneu.png	id-1360_gender-F_age-20_rewardprob-36_session-plusneu.png	f	1.2335779850836843	f	1.0	plusneu
64_vs_36	id-1274_gender-F_age-33_rewardprob-64_session-plusneu.png	id-1360_gender-F_age-20_rewardprob-36_session-plusneu.png	j	0.5336452360497788	f	0.0	plusneu
64_vs_36	id-1360_gender-F_age-20_rewardprob-36_session-plusneu.png	id-1274_gender-F_age-33_rewardprob-64_session-plusneu.png	j	1.83359117503278	j	1.0	plusneu
64_vs_36	id-1274_gender-F_age-33_rewardprob-64_session-plusneu.png	id-1360_gender-F_age-20_rewardprob-36_session-plusneu.png	j	1.5669474829919636	j	1.0	plusneu
80_vs_20	id-1291_gender-F_age-24_rewardprob-20_session-plusneu.png	id-1269_gender-F_age-23_rewardprob-80_session-plusneu.png	j	0.7336911719758064	j	1.0	plusneu
80_vs_20	id-1269_gender-F_age-23_rewardprob-80_session-plusneu.png	id-1291_gender-F_age-24_rewardprob-20_session-plusneu.png	f	0.6669590469682589	f	1.0	plusneu
80_vs_20	id-1269_gender-F_age-23_rewardprob-80_session-plusneu.png	id-1291_gender-F_age-24_rewardprob-20_session-plusneu.png	f	0.5337416380643845	f	1.0	plusneu
80_vs_20	id-1291_gender-F_age-24_rewardprob-20_session-plusneu.png	id-1269_gender-F_age-23_rewardprob-80_session-plusneu.png	j	0.9650737249758096	j	1.0	plusneu
80_vs_20	id-1269_gender-F_age-23_rewardprob-80_session-plusneu.png	id-1291_gender-F_age-24_rewardprob-20_session-plusneu.png	f	0.6667478780727834	f	1.0	plusneu
64_vs_36	id-1274_gender-F_age-33_rewardprob-64_session-plusneu.png	id-1360_gender-F_age-20_rewardprob-36_session-plusneu.png	j	0.8655338779790327	j	1.0	plusneu
64_vs_36	id-1274_gender-F_age-33_rewardprob-64_session-plusneu.png	id-1360_gender-F_age-20_rewardprob-36_session-plusneu.png	j	1.567066047922708	f	0.0	plusneu
80_vs_20	id-1291_gender-F_age-24_rewardprob-20_session-plusneu.png	id-1269_gender-F_age-23_rewardprob-80_session-plusneu.png	j	0.7993033280363306	j	1.0	plusneu
80_vs_20	id-1291_gender-F_age-24_rewardprob-20_session-plusneu.png	id-1269_gender-F_age-23_rewardprob-80_session-plusneu.png	j	0.9332840950228274	j	1.0	plusneu
80_vs_20	id-1269_gender-F_age-23_rewardprob-80_session-plusneu.png	id-1291_gender-F_age-24_rewardprob-20_session-plusneu.png	f	0.6001781669910997	f	1.0	plusneu
80_vs_20	id-1269_gender-F_age-23_rewardprob-80_session-plusneu.png	id-1291_gender-F_age-24_rewardprob-20_session-plusneu.png	f	0.6337026139954105	f	1.0	plusneu
80_vs_20	id-1291_gender-F_age-24_rewardprob-20_session-plusneu.png	id-1269_gender-F_age-23_rewardprob-80_session-plusneu.png	f	0.6683408609824255	j	0.0	plusneu
64_vs_36	id-1274_gender-F_age-33_rewardprob-64_session-plusneu.png	id-1360_gender-F_age-20_rewardprob-36_session-plusneu.png	f	0.6669196730945259	f	1.0	plusneu
64_vs_36	id-1360_gender-F_age-20_rewardprob-36_session-plusneu.png	id-1274_gender-F_age-33_rewardprob-64_session-plusneu.png	j	0.8336589209502563	j	1.0	plusneu
80_vs_20	id-1269_gender-F_age-23_rewardprob-80_session-plusneu.png	id-1291_gender-F_age-24_rewardprob-20_session-plusneu.png	f	0.6337853419827297	f	1.0	plusneu
64_vs_36	id-1274_gender-F_age-33_rewardprob-64_session-plusneu.png	id-1360_gender-F_age-20_rewardprob-36_session-plusneu.png	f	1.235144420992583	f	1.0	plusneu
80_vs_20	id-1291_gender-F_age-24_rewardprob-20_session-plusneu.png	id-1269_gender-F_age-23_rewardprob-80_session-plusneu.png	j	1.2335299799451604	j	1.0	plusneu
64_vs_36	id-1360_gender-F_age-20_rewardprob-36_session-plusneu.png	id-1274_gender-F_age-33_rewardprob-64_session-plusneu.png	j	1.0669310740195217	j	1.0	plusneu
80_vs_20	id-1269_gender-F_age-23_rewardprob-80_session-plusneu.png	id-1291_gender-F_age-24_rewardprob-20_session-plusneu.png	f	0.6003564350539818	f	1.0	plusneu
80_vs_20	id-1269_gender-F_age-23_rewardprob-80_session-plusneu.png	id-1291_gender-F_age-24_rewardprob-20_session-plusneu.png	f	0.9001478559803218	f	1.0	plusneu
64_vs_36	id-1274_gender-F_age-33_rewardprob-64_session-plusneu.png	id-1360_gender-F_age-20_rewardprob-36_session-plusneu.png	f	2.1670326029416174	j	0.0	plusneu
64_vs_36	id-1360_gender-F_age-20_rewardprob-36_session-plusneu.png	id-1274_gender-F_age-33_rewardprob-64_session-plusneu.png	f	0.833647957071662	j	0.0	plusneu
64_vs_36	id-1360_gender-F_age-20_rewardprob-36_session-plusneu.png	id-1274_gender-F_age-33_rewardprob-64_session-plusneu.png	f	1.300565843936056	j	0.0	plusneu
80_vs_20	id-1291_gender-F_age-24_rewardprob-20_session-plusneu.png	id-1269_gender-F_age-23_rewardprob-80_session-plusneu.png	j	0.8669764139922336	j	1.0	plusneu
80_vs_20	id-1291_gender-F_age-24_rewardprob-20_session-plusneu.png	id-1269_gender-F_age-23_rewardprob-80_session-plusneu.png	j	1.033449137932621	j	1.0	plusneu
64_vs_36	id-1360_gender-F_age-20_rewardprob-36_session-plusneu.png	id-1274_gender-F_age-33_rewardprob-64_session-plusneu.png	j	1.1003123980481178	j	1.0	plusneu
64_vs_36	id-1274_gender-F_age-33_rewardprob-64_session-plusneu.png	id-1360_gender-F_age-20_rewardprob-36_session-plusneu.png	f	0.9015201419824734	j	0.0	plusneu
80_vs_20	id-1291_gender-F_age-24_rewardprob-20_session-plusneu.png	id-1269_gender-F_age-23_rewardprob-80_session-plusneu.png	f	0.7316325689898804	j	0.0	plusneu
64_vs_36	id-1274_gender-F_age-33_rewardprob-64_session-plusneu.png	id-1360_gender-F_age-20_rewardprob-36_session-plusneu.png	j	0.9352715199347584	f	0.0	plusneu
64_vs_36	id-1274_gender-F_age-33_rewardprob-64_session-plusneu.png	id-1360_gender-F_age-20_rewardprob-36_session-plusneu.png	f	0.7336220699362457	j	0.0	plusneu
80_vs_20	id-1291_gender-F_age-24_rewardprob-20_session-plusneu.png	id-1269_gender-F_age-23_rewardprob-80_session-plusneu.png	j	0.6336895569693297	j	1.0	plusneu
64_vs_36	id-1274_gender-F_age-33_rewardprob-64_session-plusneu.png	id-1360_gender-F_age-20_rewardprob-36_session-plusneu.png	f	0.700372904073447	f	1.0	plusneu
64_vs_36	id-1274_gender-F_age-33_rewardprob-64_session-plusneu.png	id-1360_gender-F_age-20_rewardprob-36_session-plusneu.png	j	1.3670334130292758	j	1.0	plusneu
64_vs_36	id-1360_gender-F_age-20_rewardprob-36_session-plusneu.png	id-1274_gender-F_age-33_rewardprob-64_session-plusneu.png	j	1.4336140679661185	j	1.0	plusneu
80_vs_20	id-1291_gender-F_age-24_rewardprob-20_session-plusneu.png	id-1269_gender-F_age-23_rewardprob-80_session-plusneu.png	f	0.8003061800263822	j	0.0	plusneu
80_vs_20	id-1291_gender-F_age-24_rewardprob-20_session-plusneu.png	id-1269_gender-F_age-23_rewardprob-80_session-plusneu.png	j	0.4334860489470884	j	1.0	plusneu
64_vs_36	id-1360_gender-F_age-20_rewardprob-36_session-plusneu.png	id-1274_gender-F_age-33_rewardprob-64_session-plusneu.png	j	1.3336145100183785	j	1.0	plusneu
80_vs_20	id-1269_gender-F_age-23_rewardprob-80_session-plusneu.png	id-1291_gender-F_age-24_rewardprob-20_session-plusneu.png	f	1.0670115910470486	f	1.0	plusneu
80_vs_20	id-1269_gender-F_age-23_rewardprob-80_session-plusneu.png	id-1291_gender-F_age-24_rewardprob-20_session-plusneu.png	j	0.5001756609417498	f	0.0	plusneu
80_vs_20	id-1291_gender-F_age-24_rewardprob-20_session-plusneu.png	id-1269_gender-F_age-23_rewardprob-80_session-plusneu.png	j	0.7001655329950154	j	1.0	plusneu
64_vs_36	id-1274_gender-F_age-33_rewardprob-64_session-plusneu.png	id-1360_gender-F_age-20_rewardprob-36_session-plusneu.png	f	1.0336558819981292	f	1.0	plusneu
64_vs_36	id-1360_gender-F_age-20_rewardprob-36_session-plusneu.png	id-1274_gender-F_age-33_rewardprob-64_session-plusneu.png	f	0.8336267300182953	f	1.0	plusneu
80_vs_20	id-1291_gender-F_age-24_rewardprob-20_session-plusneu.png	id-1269_gender-F_age-23_rewardprob-80_session-plusneu.png	f	1.0002370378933847	j	0.0	plusneu
64_vs_36	id-1360_gender-F_age-20_rewardprob-36_session-plusneu.png	id-1274_gender-F_age-33_rewardprob-64_session-plusneu.png	j	1.4336103990208358	j	1.0	plusneu
80_vs_20	id-1269_gender-F_age-23_rewardprob-80_session-plusneu.png	id-1291_gender-F_age-24_rewardprob-20_session-plusneu.png	f	1.6004868330201134	f	1.0	plusneu
80_vs_20	id-1291_gender-F_age-24_rewardprob-20_session-plusneu.png	id-1269_gender-F_age-23_rewardprob-80_session-plusneu.png	j	1.4669612479628995	j	1.0	plusneu
64_vs_36	id-1274_gender-F_age-33_rewardprob-64_session-plusneu.png	id-1360_gender-F_age-20_rewardprob-36_session-plusneu.png	f	1.3336001170100644	f	1.0	plusneu
80_vs_20	id-1269_gender-F_age-23_rewardprob-80_session-plusneu.png	id-1291_gender-F_age-24_rewardprob-20_session-plusneu.png	f	0.6666703859809786	f	1.0	plusneu
80_vs_20	id-1269_gender-F_age-23_rewardprob-80_session-plusneu.png	id-1291_gender-F_age-24_rewardprob-20_session-plusneu.png	j	0.7669670990435407	f	0.0	plusneu
64_vs_36	id-1360_gender-F_age-20_rewardprob-36_session-plusneu.png	id-1274_gender-F_age-33_rewardprob-64_session-plusneu.png	j	0.700486451969482	j	1.0	plusneu
64_vs_36	id-1360_gender-F_age-20_rewardprob-36_session-plusneu.png	id-1274_gender-F_age-33_rewardprob-64_session-plusneu.png	f	0.7657474160660058	j	0.0	plusneu
64_vs_36	id-1360_gender-F_age-20_rewardprob-36_session-plusneu.png	id-1274_gender-F_age-33_rewardprob-64_session-plusneu.png	j	0.6334893960738555	j	1.0	plusneu
64_vs_36	id-1360_gender-F_age-20_rewardprob-36_session-plusneu.png	id-1274_gender-F_age-33_rewardprob-64_session-plusneu.png	f	0.5669092470780015	j	0.0	plusneu
64_vs_36	id-1274_gender-F_age-33_rewardprob-64_session-plusneu.png	id-1360_gender-F_age-20_rewardprob-36_session-plusneu.png	f	0.8667260020738468	f	1.0	plusneu
64_vs_36	id-1360_gender-F_age-20_rewardprob-36_session-plusneu.png	id-1274_gender-F_age-33_rewardprob-64_session-plusneu.png	j	2.434811349026859	j	1.0	plusneu
80_vs_20	id-1269_gender-F_age-23_rewardprob-80_session-plusneu.png	id-1291_gender-F_age-24_rewardprob-20_session-plusneu.png	f	0.6337338079465553	f	1.0	plusneu
80_vs_20	id-1269_gender-F_age-23_rewardprob-80_session-plusneu.png	id-1291_gender-F_age-24_rewardprob-20_session-plusneu.png	f	0.666795147000812	f	1.0	plusneu
64_vs_36	id-1360_gender-F_age-20_rewardprob-36_session-plusneu.png	id-1274_gender-F_age-33_rewardprob-64_session-plusneu.png	f	0.6336322289425881	j	0.0	plusneu
80_vs_20	id-1291_gender-F_age-24_rewardprob-20_session-plusneu.png	id-1269_gender-F_age-23_rewardprob-80_session-plusneu.png	j	0.6336209340952337	j	1.0	plusneu
64_vs_36	id-1360_gender-F_age-20_rewardprob-36_session-plusneu.png	id-1274_gender-F_age-33_rewardprob-64_session-plusneu.png	j	2.8024418450659137	j	1.0	plusneu
64_vs_36	id-1274_gender-F_age-33_rewardprob-64_session-plusneu.png	id-1360_gender-F_age-20_rewardprob-36_session-plusneu.png	f	1.1000426079845056	j	0.0	plusneu
64_vs_36	id-1360_gender-F_age-20_rewardprob-36_session-plusneu.png	id-1274_gender-F_age-33_rewardprob-64_session-plusneu.png	j	0.6004472129279748	j	1.0	plusneu
64_vs_36	id-1360_gender-F_age-20_rewardprob-36_session-plusneu.png	id-1274_gender-F_age-33_rewardprob-64_session-plusneu.png	j	1.4335291530005634	j	1.0	plusneu
80_vs_20	id-1291_gender-F_age-24_rewardprob-20_session-plusneu.png	id-1269_gender-F_age-23_rewardprob-80_session-plusneu.png	j	0.7003648451063782	j	1.0	plusneu
80_vs_20	id-1291_gender-F_age-24_rewardprob-20_session-plusneu.png	id-1269_gender-F_age-23_rewardprob-80_session-plusneu.png	f	0.8004068230511621	j	0.0	plusneu
64_vs_36	id-1274_gender-F_age-33_rewardprob-64_session-plusneu.png	id-1360_gender-F_age-20_rewardprob-36_session-plusneu.png	j	1.4002056689932942	f	0.0	plusneu
64_vs_36	id-1360_gender-F_age-20_rewardprob-36_session-plusneu.png	id-1274_gender-F_age-33_rewardprob-64_session-plusneu.png	f	1.3649326250888407	j	0.0	plusneu
64_vs_36	id-1274_gender-F_age-33_rewardprob-64_session-plusneu.png	id-1360_gender-F_age-20_rewardprob-36_session-plusneu.png	f	1.900334444013424	f	1.0	plusneu
64_vs_36	id-1274_gender-F_age-33_rewardprob-64_session-plusneu.png	id-1360_gender-F_age-20_rewardprob-36_session-plusneu.png	f	0.9682807540521026	f	1.0	plusneu
80_vs_20	id-1269_gender-F_age-23_rewardprob-80_session-plusneu.png	id-1291_gender-F_age-24_rewardprob-20_session-plusneu.png	f	0.6336592800216749	f	1.0	plusneu
80_vs_20	id-1269_gender-F_age-23_rewardprob-80_session-plusneu.png	id-1291_gender-F_age-24_rewardprob-20_session-plusneu.png	f	0.5651003179373221	f	1.0	plusneu
80_vs_20	id-1291_gender-F_age-24_rewardprob-20_session-plusneu.png	id-1269_gender-F_age-23_rewardprob-80_session-plusneu.png	j	0.8334936429746449	j	1.0	plusneu
64_vs_36	id-1360_gender-F_age-20_rewardprob-36_session-plusneu.png	id-1274_gender-F_age-33_rewardprob-64_session-plusneu.png	f	1.2001983820227906	j	0.0	plusneu
64_vs_36	id-1360_gender-F_age-20_rewardprob-36_session-plusneu.png	id-1274_gender-F_age-33_rewardprob-64_session-plusneu.png	j	1.1336335659725592	j	1.0	plusneu
64_vs_36	id-1274_gender-F_age-33_rewardprob-64_session-plusneu.png	id-1360_gender-F_age-20_rewardprob-36_session-plusneu.png	f	1.1345141989877447	f	1.0	plusneu
80_vs_20	id-1269_gender-F_age-23_rewardprob-80_session-plusneu.png	id-1291_gender-F_age-24_rewardprob-20_session-plusneu.png	j	0.8019664869643748	f	0.0	plusneu
64_vs_36	id-1274_gender-F_age-33_rewardprob-64_session-plusneu.png	id-1360_gender-F_age-20_rewardprob-36_session-plusneu.png	j	1.0336432959884403	f	0.0	plusneu
80_vs_20	id-1269_gender-F_age-23_rewardprob-80_session-plusneu.png	id-1291_gender-F_age-24_rewardprob-20_session-plusneu.png	f	1.0323655650718138	f	1.0	plusneu
64_vs_36	id-1360_gender-F_age-20_rewardprob-36_session-plusneu.png	id-1274_gender-F_age-33_rewardprob-64_session-plusneu.png	j	1.4668182260356843	f	0.0	plusneu
80_vs_20	id-1269_gender-F_age-23_rewardprob-80_session-plusneu.png	id-1291_gender-F_age-24_rewardprob-20_session-plusneu.png	f	0.9671931359916924	f	1.0	plusneu
80_vs_20	id-1269_gender-F_age-23_rewardprob-80_session-plusneu.png	id-1291_gender-F_age-24_rewardprob-20_session-plusneu.png	f	0.6336407338967547	f	1.0	plusneu
64_vs_36	id-1274_gender-F_age-33_rewardprob-64_session-plusneu.png	id-1360_gender-F_age-20_rewardprob-36_session-plusneu.png	f	1.5001212500501424	f	1.0	plusneu
80_vs_20	id-1269_gender-F_age-23_rewardprob-80_session-plusneu.png	id-1291_gender-F_age-24_rewardprob-20_session-plusneu.png	j	1.7987893919926137	f	0.0	plusneu
64_vs_36	id-1274_gender-F_age-33_rewardprob-64_session-plusneu.png	id-1360_gender-F_age-20_rewardprob-36_session-plusneu.png	j	0.6336102760396898	f	0.0	plusneu
64_vs_36	id-1285_gender-F_age-19_rewardprob-64_session-plusmin.png	id-1356_gender-F_age-20_rewardprob-36_session-plusmin.png	j	1.2337256389437243	f	0.0	plusmin
80_vs_20	id-1270_gender-F_age-30_rewardprob-80_session-plusmin.png	id-1358_gender-F_age-32_rewardprob-20_session-plusmin.png	f	1.1336365399183703	j	0.0	plusmin
64_vs_36	id-1356_gender-F_age-20_rewardprob-36_session-plusmin.png	id-1285_gender-F_age-19_rewardprob-64_session-plusmin.png	j	1.2688902289373798	j	1.0	plusmin
80_vs_20	id-1270_gender-F_age-30_rewardprob-80_session-plusmin.png	id-1358_gender-F_age-32_rewardprob-20_session-plusmin.png	f	1.3001714419806376	j	0.0	plusmin
64_vs_36	id-1356_gender-F_age-20_rewardprob-36_session-plusmin.png	id-1285_gender-F_age-19_rewardprob-64_session-plusmin.png	f	1.368274322943762	f	1.0	plusmin
80_vs_20	id-1358_gender-F_age-32_rewardprob-20_session-plusmin.png	id-1270_gender-F_age-30_rewardprob-80_session-plusmin.png	j	0.5335585499415174	f	0.0	plusmin
80_vs_20	id-1270_gender-F_age-30_rewardprob-80_session-plusmin.png	id-1358_gender-F_age-32_rewardprob-20_session-plusmin.png	j	1.6337466249242425	j	1.0	plusmin
64_vs_36	id-1356_gender-F_age-20_rewardprob-36_session-plusmin.png	id-1285_gender-F_age-19_rewardprob-64_session-plusmin.png	f	0.8326523629948497	f	1.0	plusmin
64_vs_36	id-1356_gender-F_age-20_rewardprob-36_session-plusmin.png	id-1285_gender-F_age-19_rewardprob-64_session-plusmin.png	j	0.6354699439834803	f	0.0	plusmin
64_vs_36	id-1356_gender-F_age-20_rewardprob-36_session-plusmin.png	id-1285_gender-F_age-19_rewardprob-64_session-plusmin.png	f	1.233656013966538	f	1.0	plusmin
80_vs_20	id-1358_gender-F_age-32_rewardprob-20_session-plusmin.png	id-1270_gender-F_age-30_rewardprob-80_session-plusmin.png	j	0.6003986060386524	f	0.0	plusmin
64_vs_36	id-1285_gender-F_age-19_rewardprob-64_session-plusmin.png	id-1356_gender-F_age-20_rewardprob-36_session-plusmin.png	f	1.3671428320230916	j	0.0	plusmin
80_vs_20	id-1270_gender-F_age-30_rewardprob-80_session-plusmin.png	id-1358_gender-F_age-32_rewardprob-20_session-plusmin.png	f	0.6670225429115817	j	0.0	plusmin
80_vs_20	id-1270_gender-F_age-30_rewardprob-80_session-plusmin.png	id-1358_gender-F_age-32_rewardprob-20_session-plusmin.png	f	0.698498765937984	j	0.0	plusmin
64_vs_36	id-1356_gender-F_age-20_rewardprob-36_session-plusmin.png	id-1285_gender-F_age-19_rewardprob-64_session-plusmin.png	f	1.2336665100883693	f	1.0	plusmin
80_vs_20	id-1358_gender-F_age-32_rewardprob-20_session-plusmin.png	id-1270_gender-F_age-30_rewardprob-80_session-plusmin.png	f	0.8669109729817137	j	0.0	plusmin
64_vs_36	id-1356_gender-F_age-20_rewardprob-36_session-plusmin.png	id-1285_gender-F_age-19_rewardprob-64_session-plusmin.png	j	1.0004081249935552	f	0.0	plusmin
64_vs_36	id-1285_gender-F_age-19_rewardprob-64_session-plusmin.png	id-1356_gender-F_age-20_rewardprob-36_session-plusmin.png	f	1.2002637969562784	j	0.0	plusmin
64_vs_36	id-1285_gender-F_age-19_rewardprob-64_session-plusmin.png	id-1356_gender-F_age-20_rewardprob-36_session-plusmin.png	f	1.1335833750199529	f	1.0	plusmin
64_vs_36	id-1285_gender-F_age-19_rewardprob-64_session-plusmin.png	id-1356_gender-F_age-20_rewardprob-36_session-plusmin.png	f	0.7017088709399104	f	1.0	plusmin
80_vs_20	id-1358_gender-F_age-32_rewardprob-20_session-plusmin.png	id-1270_gender-F_age-30_rewardprob-80_session-plusmin.png	f	1.3636154809501022	j	0.0	plusmin
80_vs_20	id-1358_gender-F_age-32_rewardprob-20_session-plusmin.png	id-1270_gender-F_age-30_rewardprob-80_session-plusmin.png	j	1.2669413660187274	j	1.0	plusmin
80_vs_20	id-1358_gender-F_age-32_rewardprob-20_session-plusmin.png	id-1270_gender-F_age-30_rewardprob-80_session-plusmin.png	j	1.300359865068458	j	1.0	plusmin
80_vs_20	id-1358_gender-F_age-32_rewardprob-20_session-plusmin.png	id-1270_gender-F_age-30_rewardprob-80_session-plusmin.png	j	1.4670052638975903	j	1.0	plusmin
64_vs_36	id-1356_gender-F_age-20_rewardprob-36_session-plusmin.png	id-1285_gender-F_age-19_rewardprob-64_session-plusmin.png	j	1.1006964460248128	j	1.0	plusmin
64_vs_36	id-1356_gender-F_age-20_rewardprob-36_session-plusmin.png	id-1285_gender-F_age-19_rewardprob-64_session-plusmin.png	j	1.2336703030159697	j	1.0	plusmin
80_vs_20	id-1270_gender-F_age-30_rewardprob-80_session-plusmin.png	id-1358_gender-F_age-32_rewardprob-20_session-plusmin.png	f	1.202056934009306	f	1.0	plusmin
64_vs_36	id-1285_gender-F_age-19_rewardprob-64_session-plusmin.png	id-1356_gender-F_age-20_rewardprob-36_session-plusmin.png	f	0.8646264059934765	j	0.0	plusmin
80_vs_20	id-1358_gender-F_age-32_rewardprob-20_session-plusmin.png	id-1270_gender-F_age-30_rewardprob-80_session-plusmin.png	j	1.2002940539969131	j	1.0	plusmin
64_vs_36	id-1356_gender-F_age-20_rewardprob-36_session-plusmin.png	id-1285_gender-F_age-19_rewardprob-64_session-plusmin.png	j	1.2003141549648717	j	1.0	plusmin
64_vs_36	id-1285_gender-F_age-19_rewardprob-64_session-plusmin.png	id-1356_gender-F_age-20_rewardprob-36_session-plusmin.png	f	1.2003167789662257	f	1.0	plusmin
64_vs_36	id-1285_gender-F_age-19_rewardprob-64_session-plusmin.png	id-1356_gender-F_age-20_rewardprob-36_session-plusmin.png	f	2.4670709089841694	f	1.0	plusmin
80_vs_20	id-1270_gender-F_age-30_rewardprob-80_session-plusmin.png	id-1358_gender-F_age-32_rewardprob-20_session-plusmin.png	f	1.7013675649650395	f	1.0	plusmin
80_vs_20	id-1270_gender-F_age-30_rewardprob-80_session-plusmin.png	id-1358_gender-F_age-32_rewardprob-20_session-plusmin.png	f	1.3324394789524376	f	1.0	plusmin
64_vs_36	id-1356_gender-F_age-20_rewardprob-36_session-plusmin.png	id-1285_gender-F_age-19_rewardprob-64_session-plusmin.png	f	1.7003376410575584	f	1.0	plusmin
64_vs_36	id-1285_gender-F_age-19_rewardprob-64_session-plusmin.png	id-1356_gender-F_age-20_rewardprob-36_session-plusmin.png	f	1.700305241975002	f	1.0	plusmin
80_vs_20	id-1358_gender-F_age-32_rewardprob-20_session-plusmin.png	id-1270_gender-F_age-30_rewardprob-80_session-plusmin.png	j	1.1671438720077276	j	1.0	plusmin
64_vs_36	id-1285_gender-F_age-19_rewardprob-64_session-plusmin.png	id-1356_gender-F_age-20_rewardprob-36_session-plusmin.png	f	2.2667489419691265	f	1.0	plusmin
64_vs_36	id-1356_gender-F_age-20_rewardprob-36_session-plusmin.png	id-1285_gender-F_age-19_rewardprob-64_session-plusmin.png	j	1.9019563649781048	j	1.0	plusmin
64_vs_36	id-1356_gender-F_age-20_rewardprob-36_session-plusmin.png	id-1285_gender-F_age-19_rewardprob-64_session-plusmin.png	j	2.5335684199817483	j	1.0	plusmin
64_vs_36	id-1285_gender-F_age-19_rewardprob-64_session-plusmin.png	id-1356_gender-F_age-20_rewardprob-36_session-plusmin.png	j		None	0.0	plusmin
64_vs_36	id-1285_gender-F_age-19_rewardprob-64_session-plusmin.png	id-1356_gender-F_age-20_rewardprob-36_session-plusmin.png	j	1.3671180519741029	f	0.0	plusmin
80_vs_20	id-1358_gender-F_age-32_rewardprob-20_session-plusmin.png	id-1270_gender-F_age-30_rewardprob-80_session-plusmin.png	f	2.2669644949492067	j	0.0	plusmin
64_vs_36	id-1285_gender-F_age-19_rewardprob-64_session-plusmin.png	id-1356_gender-F_age-20_rewardprob-36_session-plusmin.png	f		None	0.0	plusmin
64_vs_36	id-1356_gender-F_age-20_rewardprob-36_session-plusmin.png	id-1285_gender-F_age-19_rewardprob-64_session-plusmin.png	j	1.4337279089959338	f	0.0	plusmin
80_vs_20	id-1358_gender-F_age-32_rewardprob-20_session-plusmin.png	id-1270_gender-F_age-30_rewardprob-80_session-plusmin.png	j	0.9001562359044328	j	1.0	plusmin
64_vs_36	id-1285_gender-F_age-19_rewardprob-64_session-plusmin.png	id-1356_gender-F_age-20_rewardprob-36_session-plusmin.png	j	1.0336719469632951	f	0.0	plusmin
80_vs_20	id-1270_gender-F_age-30_rewardprob-80_session-plusmin.png	id-1358_gender-F_age-32_rewardprob-20_session-plusmin.png	f	1.066945924074389	f	1.0	plusmin
80_vs_20	id-1270_gender-F_age-30_rewardprob-80_session-plusmin.png	id-1358_gender-F_age-32_rewardprob-20_session-plusmin.png	f	1.2670862389495596	f	1.0	plusmin
64_vs_36	id-1285_gender-F_age-19_rewardprob-64_session-plusmin.png	id-1356_gender-F_age-20_rewardprob-36_session-plusmin.png	j	0.6325068699661642	j	1.0	plusmin
80_vs_20	id-1358_gender-F_age-32_rewardprob-20_session-plusmin.png	id-1270_gender-F_age-30_rewardprob-80_session-plusmin.png	f	1.0349132679402828	j	0.0	plusmin
80_vs_20	id-1270_gender-F_age-30_rewardprob-80_session-plusmin.png	id-1358_gender-F_age-32_rewardprob-20_session-plusmin.png	f	0.6002917870646343	j	0.0	plusmin
80_vs_20	id-1270_gender-F_age-30_rewardprob-80_session-plusmin.png	id-1358_gender-F_age-32_rewardprob-20_session-plusmin.png	f	0.6002084350911899	f	1.0	plusmin
80_vs_20	id-1270_gender-F_age-30_rewardprob-80_session-plusmin.png	id-1358_gender-F_age-32_rewardprob-20_session-plusmin.png	f	0.5336230950197205	f	1.0	plusmin
80_vs_20	id-1358_gender-F_age-32_rewardprob-20_session-plusmin.png	id-1270_gender-F_age-30_rewardprob-80_session-plusmin.png	j	0.6992559989448637	j	1.0	plusmin
80_vs_20	id-1358_gender-F_age-32_rewardprob-20_session-plusmin.png	id-1270_gender-F_age-30_rewardprob-80_session-plusmin.png	j	0.7337108680512756	j	1.0	plusmin
80_vs_20	id-1358_gender-F_age-32_rewardprob-20_session-plusmin.png	id-1270_gender-F_age-30_rewardprob-80_session-plusmin.png	j	0.5669745500199497	j	1.0	plusmin
64_vs_36	id-1356_gender-F_age-20_rewardprob-36_session-plusmin.png	id-1285_gender-F_age-19_rewardprob-64_session-plusmin.png	j	1.1336969420081005	j	1.0	plusmin
64_vs_36	id-1285_gender-F_age-19_rewardprob-64_session-plusmin.png	id-1356_gender-F_age-20_rewardprob-36_session-plusmin.png	f	1.2335540968924759	f	1.0	plusmin
80_vs_20	id-1358_gender-F_age-32_rewardprob-20_session-plusmin.png	id-1270_gender-F_age-30_rewardprob-80_session-plusmin.png	j	0.8652037380961701	j	1.0	plusmin
64_vs_36	id-1285_gender-F_age-19_rewardprob-64_session-plusmin.png	id-1356_gender-F_age-20_rewardprob-36_session-plusmin.png	f	1.1001316390465945	f	1.0	plusmin
64_vs_36	id-1356_gender-F_age-20_rewardprob-36_session-plusmin.png	id-1285_gender-F_age-19_rewardprob-64_session-plusmin.png	j	0.833828118047677	j	1.0	plusmin
64_vs_36	id-1285_gender-F_age-19_rewardprob-64_session-plusmin.png	id-1356_gender-F_age-20_rewardprob-36_session-plusmin.png	f	0.9336900180205704	f	1.0	plusmin
64_vs_36	id-1356_gender-F_age-20_rewardprob-36_session-plusmin.png	id-1285_gender-F_age-19_rewardprob-64_session-plusmin.png	f	1.3669626130722463	j	0.0	plusmin
64_vs_36	id-1285_gender-F_age-19_rewardprob-64_session-plusmin.png	id-1356_gender-F_age-20_rewardprob-36_session-plusmin.png	j	1.0337261590175328	f	0.0	plusmin
64_vs_36	id-1356_gender-F_age-20_rewardprob-36_session-plusmin.png	id-1285_gender-F_age-19_rewardprob-64_session-plusmin.png	j	2.0670455989893526	f	0.0	plusmin
64_vs_36	id-1285_gender-F_age-19_rewardprob-64_session-plusmin.png	id-1356_gender-F_age-20_rewardprob-36_session-plusmin.png	f	0.8336101559689268	f	1.0	plusmin
80_vs_20	id-1358_gender-F_age-32_rewardprob-20_session-plusmin.png	id-1270_gender-F_age-30_rewardprob-80_session-plusmin.png	j	0.9668650230159984	j	1.0	plusmin
80_vs_20	id-1270_gender-F_age-30_rewardprob-80_session-plusmin.png	id-1358_gender-F_age-32_rewardprob-20_session-plusmin.png	f	0.7005383180221543	f	1.0	plusmin
80_vs_20	id-1270_gender-F_age-30_rewardprob-80_session-plusmin.png	id-1358_gender-F_age-32_rewardprob-20_session-plusmin.png	f	2.0337842589942743	f	1.0	plusmin
64_vs_36	id-1285_gender-F_age-19_rewardprob-64_session-plusmin.png	id-1356_gender-F_age-20_rewardprob-36_session-plusmin.png	j	2.633752966998145	f	0.0	plusmin
80_vs_20	id-1270_gender-F_age-30_rewardprob-80_session-plusmin.png	id-1358_gender-F_age-32_rewardprob-20_session-plusmin.png	f	0.7336830800632015	f	1.0	plusmin
64_vs_36	id-1285_gender-F_age-19_rewardprob-64_session-plusmin.png	id-1356_gender-F_age-20_rewardprob-36_session-plusmin.png	f	1.0336413310142234	f	1.0	plusmin
64_vs_36	id-1356_gender-F_age-20_rewardprob-36_session-plusmin.png	id-1285_gender-F_age-19_rewardprob-64_session-plusmin.png	f	0.6668648360064253	j	0.0	plusmin
80_vs_20	id-1270_gender-F_age-30_rewardprob-80_session-plusmin.png	id-1358_gender-F_age-32_rewardprob-20_session-plusmin.png	j	0.9669300500536336	f	0.0	plusmin
80_vs_20	id-1270_gender-F_age-30_rewardprob-80_session-plusmin.png	id-1358_gender-F_age-32_rewardprob-20_session-plusmin.png	f	1.2336432350566608	f	1.0	plusmin
64_vs_36	id-1356_gender-F_age-20_rewardprob-36_session-plusmin.png	id-1285_gender-F_age-19_rewardprob-64_session-plusmin.png	f	0.8670489030191675	j	0.0	plusmin
80_vs_20	id-1358_gender-F_age-32_rewardprob-20_session-plusmin.png	id-1270_gender-F_age-30_rewardprob-80_session-plusmin.png	j	0.7335663960548118	j	1.0	plusmin
64_vs_36	id-1356_gender-F_age-20_rewardprob-36_session-plusmin.png	id-1285_gender-F_age-19_rewardprob-64_session-plusmin.png	j	0.7669864910421893	j	1.0	plusmin
80_vs_20	id-1358_gender-F_age-32_rewardprob-20_session-plusmin.png	id-1270_gender-F_age-30_rewardprob-80_session-plusmin.png	j	0.6335697670001537	j	1.0	plusmin
64_vs_36	id-1356_gender-F_age-20_rewardprob-36_session-plusmin.png	id-1285_gender-F_age-19_rewardprob-64_session-plusmin.png	j	0.7669316818937659	j	1.0	plusmin
64_vs_36	id-1285_gender-F_age-19_rewardprob-64_session-plusmin.png	id-1356_gender-F_age-20_rewardprob-36_session-plusmin.png	j	0.6667362010339275	j	1.0	plusmin
80_vs_20	id-1270_gender-F_age-30_rewardprob-80_session-plusmin.png	id-1358_gender-F_age-32_rewardprob-20_session-plusmin.png	j	2.4336265220772475	f	0.0	plusmin
80_vs_20	id-1358_gender-F_age-32_rewardprob-20_session-plusmin.png	id-1270_gender-F_age-30_rewardprob-80_session-plusmin.png	f	0.7653460979927331	j	0.0	plusmin
80_vs_20	id-1358_gender-F_age-32_rewardprob-20_session-plusmin.png	id-1270_gender-F_age-30_rewardprob-80_session-plusmin.png	j	0.4668882869882509	f	0.0	plusmin
64_vs_36	id-1356_gender-F_age-20_rewardprob-36_session-plusmin.png	id-1285_gender-F_age-19_rewardprob-64_session-plusmin.png	j	0.8668615989154205	j	1.0	plusmin
64_vs_36	id-1356_gender-F_age-20_rewardprob-36_session-plusmin.png	id-1285_gender-F_age-19_rewardprob-64_session-plusmin.png	f	1.1336558639304712	j	0.0	plusmin
80_vs_20	id-1358_gender-F_age-32_rewardprob-20_session-plusmin.png	id-1270_gender-F_age-30_rewardprob-80_session-plusmin.png	j	2.1322817159816623	j	1.0	plusmin
80_vs_20	id-1358_gender-F_age-32_rewardprob-20_session-plusmin.png	id-1270_gender-F_age-30_rewardprob-80_session-plusmin.png	j	1.1339319589314982	j	1.0	plusmin
64_vs_36	id-1356_gender-F_age-20_rewardprob-36_session-plusmin.png	id-1285_gender-F_age-19_rewardprob-64_session-plusmin.png	j	1.63368064397946	j	1.0	plusmin
80_vs_20	id-1270_gender-F_age-30_rewardprob-80_session-plusmin.png	id-1358_gender-F_age-32_rewardprob-20_session-plusmin.png	f	0.5336881189141423	j	0.0	plusmin
80_vs_20	id-1270_gender-F_age-30_rewardprob-80_session-plusmin.png	id-1358_gender-F_age-32_rewardprob-20_session-plusmin.png	j	0.6006234599044546	j	1.0	plusmin
80_vs_20	id-1270_gender-F_age-30_rewardprob-80_session-plusmin.png	id-1358_gender-F_age-32_rewardprob-20_session-plusmin.png	f	0.6002805799944326	f	1.0	plusmin
80_vs_20	id-1270_gender-F_age-30_rewardprob-80_session-plusmin.png	id-1358_gender-F_age-32_rewardprob-20_session-plusmin.png	j	1.6001528019551188	f	0.0	plusmin
80_vs_20	id-1358_gender-F_age-32_rewardprob-20_session-plusmin.png	id-1270_gender-F_age-30_rewardprob-80_session-plusmin.png	j	1.3693975050700828	j	1.0	plusmin
80_vs_20	id-1358_gender-F_age-32_rewardprob-20_session-plusmin.png	id-1270_gender-F_age-30_rewardprob-80_session-plusmin.png	j	1.1670236049685627	j	1.0	plusmin
80_vs_20	id-1270_gender-F_age-30_rewardprob-80_session-plusmin.png	id-1358_gender-F_age-32_rewardprob-20_session-plusmin.png	f	0.7003196759615093	f	1.0	plusmin
64_vs_36	id-1285_gender-F_age-19_rewardprob-64_session-plusmin.png	id-1356_gender-F_age-20_rewardprob-36_session-plusmin.png	f	0.7670404119417071	f	1.0	plusmin
64_vs_36	id-1285_gender-F_age-19_rewardprob-64_session-plusmin.png	id-1356_gender-F_age-20_rewardprob-36_session-plusmin.png	j	1.233597325044684	f	0.0	plusmin
80_vs_20	id-1270_gender-F_age-30_rewardprob-80_session-plusmin.png	id-1358_gender-F_age-32_rewardprob-20_session-plusmin.png	f	0.9002134629990906	f	1.0	plusmin
64_vs_36	id-1356_gender-F_age-20_rewardprob-36_session-plusmin.png	id-1285_gender-F_age-19_rewardprob-64_session-plusmin.png	j	2.068273867946118	j	1.0	plusmin
80_vs_20	id-1270_gender-F_age-30_rewardprob-80_session-plusmin.png	id-1358_gender-F_age-32_rewardprob-20_session-plusmin.png	f	2.0671701619867235	f	1.0	plusmin
80_vs_20	id-1358_gender-F_age-32_rewardprob-20_session-plusmin.png	id-1270_gender-F_age-30_rewardprob-80_session-plusmin.png	j	0.8336211350979283	j	1.0	plusmin
64_vs_36	id-1356_gender-F_age-20_rewardprob-36_session-plusmin.png	id-1285_gender-F_age-19_rewardprob-64_session-plusmin.png	j	1.4670059409691019	j	1.0	plusmin
80_vs_20	id-1270_gender-F_age-30_rewardprob-80_session-plusmin.png	id-1358_gender-F_age-32_rewardprob-20_session-plusmin.png	f	0.6002212429884821	f	1.0	plusmin
80_vs_20	id-1358_gender-F_age-32_rewardprob-20_session-plusmin.png	id-1270_gender-F_age-30_rewardprob-80_session-plusmin.png	j	0.7351472669979557	j	1.0	plusmin
80_vs_20	id-1270_gender-F_age-30_rewardprob-80_session-plusmin.png	id-1358_gender-F_age-32_rewardprob-20_session-plusmin.png	f	0.7336643299786374	f	1.0	plusmin
80_vs_20	id-1358_gender-F_age-32_rewardprob-20_session-plusmin.png	id-1270_gender-F_age-30_rewardprob-80_session-plusmin.png	j	0.6003126510186121	j	1.0	plusmin
64_vs_36	id-1285_gender-F_age-19_rewardprob-64_session-plusmin.png	id-1356_gender-F_age-20_rewardprob-36_session-plusmin.png	j	1.2002690999070182	f	0.0	plusmin
80_vs_20	id-1270_gender-F_age-30_rewardprob-80_session-plusmin.png	id-1358_gender-F_age-32_rewardprob-20_session-plusmin.png	f	1.4354802810121328	f	1.0	plusmin
64_vs_36	id-1356_gender-F_age-20_rewardprob-36_session-plusmin.png	id-1285_gender-F_age-19_rewardprob-64_session-plusmin.png	f	1.534953595022671	j	0.0	plusmin
80_vs_20	id-1270_gender-F_age-30_rewardprob-80_session-plusmin.png	id-1358_gender-F_age-32_rewardprob-20_session-plusmin.png	j	0.5976193089736626	f	0.0	plusmin
80_vs_20	id-1270_gender-F_age-30_rewardprob-80_session-plusmin.png	id-1358_gender-F_age-32_rewardprob-20_session-plusmin.png	j	1.3667741030221805	f	0.0	plusmin
64_vs_36	id-1285_gender-F_age-19_rewardprob-64_session-plusmin.png	id-1356_gender-F_age-20_rewardprob-36_session-plusmin.png	j	1.233632585965097	f	0.0	plusmin
64_vs_36	id-1356_gender-F_age-20_rewardprob-36_session-plusmin.png	id-1285_gender-F_age-19_rewardprob-64_session-plusmin.png	j	1.1335115869296717	j	1.0	plusmin
80_vs_20	id-1358_gender-F_age-32_rewardprob-20_session-plusmin.png	id-1270_gender-F_age-30_rewardprob-80_session-plusmin.png	f	1.600333520094864	j	0.0	plusmin
64_vs_36	id-1285_gender-F_age-19_rewardprob-64_session-plusmin.png	id-1356_gender-F_age-20_rewardprob-36_session-plusmin.png	f	1.0335946379927918	f	1.0	plusmin
64_vs_36	id-1356_gender-F_age-20_rewardprob-36_session-plusmin.png	id-1285_gender-F_age-19_rewardprob-64_session-plusmin.png	j	1.1668405230157075	j	1.0	plusmin
80_vs_20	id-1270_gender-F_age-30_rewardprob-80_session-plusmin.png	id-1358_gender-F_age-32_rewardprob-20_session-plusmin.png	f	0.6669675899902359	f	1.0	plusmin
80_vs_20	id-1358_gender-F_age-32_rewardprob-20_session-plusmin.png	id-1270_gender-F_age-30_rewardprob-80_session-plusmin.png	j	2.2669991289731115	j	1.0	plusmin
80_vs_20	id-1270_gender-F_age-30_rewardprob-80_session-plusmin.png	id-1358_gender-F_age-32_rewardprob-20_session-plusmin.png	f	0.7650400080019608	f	1.0	plusmin
80_vs_20	id-1358_gender-F_age-32_rewardprob-20_session-plusmin.png	id-1270_gender-F_age-30_rewardprob-80_session-plusmin.png	j	0.9669322540285066	j	1.0	plusmin
80_vs_20	id-1270_gender-F_age-30_rewardprob-80_session-plusmin.png	id-1358_gender-F_age-32_rewardprob-20_session-plusmin.png	f	0.7670278009027243	f	1.0	plusmin
80_vs_20	id-1358_gender-F_age-32_rewardprob-20_session-plusmin.png	id-1270_gender-F_age-30_rewardprob-80_session-plusmin.png	j	0.7002912679454312	j	1.0	plusmin
64_vs_36	id-1285_gender-F_age-19_rewardprob-64_session-plusmin.png	id-1356_gender-F_age-20_rewardprob-36_session-plusmin.png	f	1.0672144340351224	f	1.0	plusmin
80_vs_20	id-1270_gender-F_age-30_rewardprob-80_session-plusmin.png	id-1358_gender-F_age-32_rewardprob-20_session-plusmin.png	j	0.6334782199701294	f	0.0	plusmin
80_vs_20	id-1358_gender-F_age-32_rewardprob-20_session-plusmin.png	id-1270_gender-F_age-30_rewardprob-80_session-plusmin.png	j	0.9002630470786244	j	1.0	plusmin
80_vs_20	id-1358_gender-F_age-32_rewardprob-20_session-plusmin.png	id-1270_gender-F_age-30_rewardprob-80_session-plusmin.png	j	0.968649858958088	j	1.0	plusmin
64_vs_36	id-1356_gender-F_age-20_rewardprob-36_session-plusmin.png	id-1285_gender-F_age-19_rewardprob-64_session-plusmin.png	f	1.2657515039900318	j	0.0	plusmin
64_vs_36	id-1285_gender-F_age-19_rewardprob-64_session-plusmin.png	id-1356_gender-F_age-20_rewardprob-36_session-plusmin.png	f	1.9685099569614977	f	1.0	plusmin
64_vs_36	id-1285_gender-F_age-19_rewardprob-64_session-plusmin.png	id-1356_gender-F_age-20_rewardprob-36_session-plusmin.png	j	0.7659439330454916	f	0.0	plusmin
80_vs_20	id-1358_gender-F_age-32_rewardprob-20_session-plusmin.png	id-1270_gender-F_age-30_rewardprob-80_session-plusmin.png	j	0.6984927500598133	j	1.0	plusmin
64_vs_36	id-1356_gender-F_age-20_rewardprob-36_session-plusmin.png	id-1285_gender-F_age-19_rewardprob-64_session-plusmin.png	j	1.1000234570819885	j	1.0	plusmin
80_vs_20	id-1358_gender-F_age-32_rewardprob-20_session-plusmin.png	id-1270_gender-F_age-30_rewardprob-80_session-plusmin.png	j	0.800333847058937	j	1.0	plusmin
64_vs_36	id-1356_gender-F_age-20_rewardprob-36_session-plusmin.png	id-1285_gender-F_age-19_rewardprob-64_session-plusmin.png	j	0.8001488239970058	j	1.0	plusmin
64_vs_36	id-1285_gender-F_age-19_rewardprob-64_session-plusmin.png	id-1356_gender-F_age-20_rewardprob-36_session-plusmin.png	f	0.7337465300224721	f	1.0	plusmin
80_vs_20	id-1270_gender-F_age-30_rewardprob-80_session-plusmin.png	id-1358_gender-F_age-32_rewardprob-20_session-plusmin.png	f	1.6668001770740375	f	1.0	plusmin
64_vs_36	id-1356_gender-F_age-20_rewardprob-36_session-plusmin.png	id-1285_gender-F_age-19_rewardprob-64_session-plusmin.png	f	2.133796168025583	j	0.0	plusmin
64_vs_36	id-1285_gender-F_age-19_rewardprob-64_session-plusmin.png	id-1356_gender-F_age-20_rewardprob-36_session-plusmin.png	f	1.2002889709547162	f	1.0	plusmin
80_vs_20	id-1358_gender-F_age-32_rewardprob-20_session-plusmin.png	id-1270_gender-F_age-30_rewardprob-80_session-plusmin.png	j	0.8002264630049467	j	1.0	plusmin
80_vs_20	id-1270_gender-F_age-30_rewardprob-80_session-plusmin.png	id-1358_gender-F_age-32_rewardprob-20_session-plusmin.png	f	0.6336473979754373	f	1.0	plusmin
80_vs_20	id-1270_gender-F_age-30_rewardprob-80_session-plusmin.png	id-1358_gender-F_age-32_rewardprob-20_session-plusmin.png	f	1.8002947740023956	f	1.0	plusmin
64_vs_36	id-1285_gender-F_age-19_rewardprob-64_session-plusmin.png	id-1356_gender-F_age-20_rewardprob-36_session-plusmin.png	f	0.6336821930017322	j	0.0	plusmin
80_vs_20	id-1358_gender-F_age-32_rewardprob-20_session-plusmin.png	id-1270_gender-F_age-30_rewardprob-80_session-plusmin.png	j	1.3335020599188283	j	1.0	plusmin
80_vs_20	id-1270_gender-F_age-30_rewardprob-80_session-plusmin.png	id-1358_gender-F_age-32_rewardprob-20_session-plusmin.png	f	0.9019103340106084	f	1.0	plusmin
64_vs_36	id-1356_gender-F_age-20_rewardprob-36_session-plusmin.png	id-1285_gender-F_age-19_rewardprob-64_session-plusmin.png	j	0.9002862550551072	j	1.0	plusmin
80_vs_20	id-1358_gender-F_age-32_rewardprob-20_session-plusmin.png	id-1270_gender-F_age-30_rewardprob-80_session-plusmin.png	j	1.1676032970426604	j	1.0	plusmin
80_vs_20	id-1270_gender-F_age-30_rewardprob-80_session-plusmin.png	id-1358_gender-F_age-32_rewardprob-20_session-plusmin.png	f	0.5337727180449292	f	1.0	plusmin
64_vs_36	id-1285_gender-F_age-19_rewardprob-64_session-plusmin.png	id-1356_gender-F_age-20_rewardprob-36_session-plusmin.png	f	0.9638026130851358	f	1.0	plusmin
64_vs_36	id-1285_gender-F_age-19_rewardprob-64_session-plusmin.png	id-1356_gender-F_age-20_rewardprob-36_session-plusmin.png	f	0.7681025810306892	f	1.0	plusmin
80_vs_20	id-1358_gender-F_age-32_rewardprob-20_session-plusmin.png	id-1270_gender-F_age-30_rewardprob-80_session-plusmin.png	j	0.6352514940081164	j	1.0	plusmin
64_vs_36	id-1356_gender-F_age-20_rewardprob-36_session-plusmin.png	id-1285_gender-F_age-19_rewardprob-64_session-plusmin.png	j	0.9669174529844896	j	1.0	plusmin
80_vs_20	id-1358_gender-F_age-32_rewardprob-20_session-plusmin.png	id-1270_gender-F_age-30_rewardprob-80_session-plusmin.png	f	0.6320058261044323	j	0.0	plusmin
64_vs_36	id-1285_gender-F_age-19_rewardprob-64_session-plusmin.png	id-1356_gender-F_age-20_rewardprob-36_session-plusmin.png	j	2.265942409052513	f	0.0	plusmin
64_vs_36	id-1285_gender-F_age-19_rewardprob-64_session-plusmin.png	id-1356_gender-F_age-20_rewardprob-36_session-plusmin.png	f	1.3003461320186034	f	1.0	plusmin
80_vs_20	id-1270_gender-F_age-30_rewardprob-80_session-plusmin.png	id-1358_gender-F_age-32_rewardprob-20_session-plusmin.png	j	0.7337005099980161	f	0.0	plusmin
64_vs_36	id-1356_gender-F_age-20_rewardprob-36_session-plusmin.png	id-1285_gender-F_age-19_rewardprob-64_session-plusmin.png	f	0.9001961229369044	j	0.0	plusmin
80_vs_20	id-1358_gender-F_age-32_rewardprob-20_session-plusmin.png	id-1270_gender-F_age-30_rewardprob-80_session-plusmin.png	j	0.6668526729336008	j	1.0	plusmin
64_vs_36	id-1285_gender-F_age-19_rewardprob-64_session-plusmin.png	id-1356_gender-F_age-20_rewardprob-36_session-plusmin.png	f	0.9336062259972095	f	1.0	plusmin
80_vs_20	id-1270_gender-F_age-30_rewardprob-80_session-plusmin.png	id-1358_gender-F_age-32_rewardprob-20_session-plusmin.png	f	0.7003333009779453	f	1.0	plusmin
80_vs_20	id-1358_gender-F_age-32_rewardprob-20_session-plusmin.png	id-1270_gender-F_age-30_rewardprob-80_session-plusmin.png	f	1.06712223298382	j	0.0	plusmin
64_vs_36	id-1285_gender-F_age-19_rewardprob-64_session-plusmin.png	id-1356_gender-F_age-20_rewardprob-36_session-plusmin.png	f	1.5002458089729769	f	1.0	plusmin
64_vs_36	id-1285_gender-F_age-19_rewardprob-64_session-plusmin.png	id-1356_gender-F_age-20_rewardprob-36_session-plusmin.png	j	0.8003692490747198	f	0.0	plusmin
64_vs_36	id-1356_gender-F_age-20_rewardprob-36_session-plusmin.png	id-1285_gender-F_age-19_rewardprob-64_session-plusmin.png	f	1.098899491946213	j	0.0	plusmin
64_vs_36	id-1356_gender-F_age-20_rewardprob-36_session-plusmin.png	id-1285_gender-F_age-19_rewardprob-64_session-plusmin.png	j	1.4333798110019416	j	1.0	plusmin
64_vs_36	id-1356_gender-F_age-20_rewardprob-36_session-plusmin.png	id-1285_gender-F_age-19_rewardprob-64_session-plusmin.png	j		None	0.0	plusmin
64_vs_36	id-1356_gender-F_age-20_rewardprob-36_session-plusmin.png	id-1285_gender-F_age-19_rewardprob-64_session-plusmin.png	f	1.8685034980298951	j	0.0	plusmin
64_vs_36	id-1285_gender-F_age-19_rewardprob-64_session-plusmin.png	id-1356_gender-F_age-20_rewardprob-36_session-plusmin.png	f	2.8669570030178875	j	0.0	plusmin
64_vs_36	id-1285_gender-F_age-19_rewardprob-64_session-plusmin.png	id-1356_gender-F_age-20_rewardprob-36_session-plusmin.png	f	0.7669714760268107	f	1.0	plusmin
80_vs_20	id-1270_gender-F_age-30_rewardprob-80_session-plusmin.png	id-1358_gender-F_age-32_rewardprob-20_session-plusmin.png	f	0.700119555927813	f	1.0	plusmin
64_vs_36	id-1356_gender-F_age-20_rewardprob-36_session-plusmin.png	id-1285_gender-F_age-19_rewardprob-64_session-plusmin.png	f	2.033612319966778	j	0.0	plusmin
64_vs_36	id-1285_gender-F_age-19_rewardprob-64_session-plusmin.png	id-1356_gender-F_age-20_rewardprob-36_session-plusmin.png	j	1.7336178990080953	f	0.0	plusmin
64_vs_36	id-1285_gender-F_age-19_rewardprob-64_session-plusmin.png	id-1356_gender-F_age-20_rewardprob-36_session-plusmin.png	j	2.0002599470317364	f	0.0	plusmin
64_vs_36	id-1285_gender-F_age-19_rewardprob-64_session-plusmin.png	id-1356_gender-F_age-20_rewardprob-36_session-plusmin.png	j	1.2336307589430362	f	0.0	plusmin
80_vs_20	id-1358_gender-F_age-32_rewardprob-20_session-plusmin.png	id-1270_gender-F_age-30_rewardprob-80_session-plusmin.png	j	1.2335906310472635	f	0.0	plusmin
64_vs_36	id-1356_gender-F_age-20_rewardprob-36_session-plusmin.png	id-1285_gender-F_age-19_rewardprob-64_session-plusmin.png	j	1.633770797052421	j	1.0	plusmin
80_vs_20	id-1358_gender-F_age-32_rewardprob-20_session-plusmin.png	id-1270_gender-F_age-30_rewardprob-80_session-plusmin.png	j	0.9653873610077426	j	1.0	plusmin
64_vs_36	id-1356_gender-F_age-20_rewardprob-36_session-plusmin.png	id-1285_gender-F_age-19_rewardprob-64_session-plusmin.png	j	1.903249845956452	j	1.0	plusmin
64_vs_36	id-1285_gender-F_age-19_rewardprob-64_session-plusmin.png	id-1356_gender-F_age-20_rewardprob-36_session-plusmin.png	f	1.866925141075626	f	1.0	plusmin
80_vs_20	id-1270_gender-F_age-30_rewardprob-80_session-plusmin.png	id-1358_gender-F_age-32_rewardprob-20_session-plusmin.png	f		None	0.0	plusmin
64_vs_36	id-1356_gender-F_age-20_rewardprob-36_session-plusmin.png	id-1285_gender-F_age-19_rewardprob-64_session-plusmin.png	j	1.1669144741026685	f	0.0	plusmin
80_vs_20	id-1358_gender-F_age-32_rewardprob-20_session-plusmin.png	id-1270_gender-F_age-30_rewardprob-80_session-plusmin.png	f	0.6670623269164935	j	0.0	plusmin
80_vs_20	id-1270_gender-F_age-30_rewardprob-80_session-plusmin.png	id-1358_gender-F_age-32_rewardprob-20_session-plusmin.png	j	0.6350077629322186	f	0.0	plusmin
80_vs_20	id-1270_gender-F_age-30_rewardprob-80_session-plusmin.png	id-1358_gender-F_age-32_rewardprob-20_session-plusmin.png	f	0.7016209219582379	f	1.0	plusmin
80_vs_20	id-1270_gender-F_age-30_rewardprob-80_session-plusmin.png	id-1358_gender-F_age-32_rewardprob-20_session-plusmin.png	f	0.5689381080446765	f	1.0	plusmin
64_vs_36	id-1285_gender-F_age-19_rewardprob-64_session-plusmin.png	id-1356_gender-F_age-20_rewardprob-36_session-plusmin.png	f	1.3336934590479361	f	1.0	plusmin
64_vs_36	id-1356_gender-F_age-20_rewardprob-36_session-plusmin.png	id-1285_gender-F_age-19_rewardprob-64_session-plusmin.png	j	0.6336104449583218	j	1.0	plusmin
64_vs_36	id-1356_gender-F_age-20_rewardprob-36_session-plusmin.png	id-1285_gender-F_age-19_rewardprob-64_session-plusmin.png	j	1.4669152849819511	j	1.0	plusmin
64_vs_36	id-1356_gender-F_age-20_rewardprob-36_session-plusmin.png	id-1285_gender-F_age-19_rewardprob-64_session-plusmin.png	j	1.0670675450237468	j	1.0	plusmin
80_vs_20	id-1270_gender-F_age-30_rewardprob-80_session-plusmin.png	id-1358_gender-F_age-32_rewardprob-20_session-plusmin.png	f	0.8336848419858143	f	1.0	plusmin
80_vs_20	id-1358_gender-F_age-32_rewardprob-20_session-plusmin.png	id-1270_gender-F_age-30_rewardprob-80_session-plusmin.png	f	0.9335505319759251	j	0.0	plusmin
64_vs_36	id-1285_gender-F_age-19_rewardprob-64_session-plusmin.png	id-1356_gender-F_age-20_rewardprob-36_session-plusmin.png	j	1.5003463519969955	j	1.0	plusmin
64_vs_36	id-1356_gender-F_age-20_rewardprob-36_session-plusmin.png	id-1285_gender-F_age-19_rewardprob-64_session-plusmin.png	f	0.7681156500475481	f	1.0	plusmin
80_vs_20	id-1358_gender-F_age-32_rewardprob-20_session-plusmin.png	id-1270_gender-F_age-30_rewardprob-80_session-plusmin.png	j	0.6689467780524865	j	1.0	plusmin
80_vs_20	id-1358_gender-F_age-32_rewardprob-20_session-plusmin.png	id-1270_gender-F_age-30_rewardprob-80_session-plusmin.png	j	0.6003220099955797	j	1.0	plusmin
80_vs_20	id-1270_gender-F_age-30_rewardprob-80_session-plusmin.png	id-1358_gender-F_age-32_rewardprob-20_session-plusmin.png	f	2.0670426690485333	f	1.0	plusmin
64_vs_36	id-1285_gender-F_age-19_rewardprob-64_session-plusmin.png	id-1356_gender-F_age-20_rewardprob-36_session-plusmin.png	f	2.600205329945311	j	0.0	plusmin
80_vs_20	id-1358_gender-F_age-32_rewardprob-20_session-plusmin.png	id-1270_gender-F_age-30_rewardprob-80_session-plusmin.png	j	0.7334834140492603	j	1.0	plusmin
80_vs_20	id-1270_gender-F_age-30_rewardprob-80_session-plusmin.png	id-1358_gender-F_age-32_rewardprob-20_session-plusmin.png	f	0.7670950320316479	f	1.0	plusmin
64_vs_36	id-1356_gender-F_age-20_rewardprob-36_session-plusmin.png	id-1285_gender-F_age-19_rewardprob-64_session-plusmin.png	f	0.7994350719964132	j	0.0	plusmin
