stim_csv,trial_csv,RL_wrong_instruction,RL_wrong_instruction_n,feedback_txt_incorrect,RL_session_notice,session_name,number_str,practice_reps,phase,rating_attribute,question,question_details,stim_file,reward_prob,condition,left_face,right_face,correct_resp,correct_face,session_loop.thisRepN,session_loop.thisTrialN,session_loop.thisN,session_loop.thisIndex,pre_rating_loop.thisRepN,pre_rating_loop.thisTrialN,pre_rating_loop.thisN,pre_rating_loop.thisIndex,pre_neutral_face_loop.thisRepN,pre_neutral_face_loop.thisTrialN,pre_neutral_face_loop.thisN,pre_neutral_face_loop.thisIndex,practice_trials.thisRepN,practice_trials.thisTrialN,practice_trials.thisN,practice_trials.thisIndex,real_trials.thisRepN,real_trials.thisTrialN,real_trials.thisN,real_trials.thisIndex,post_rating_loop.thisRepN,post_rating_loop.thisTrialN,post_rating_loop.thisN,post_rating_loop.thisIndex,post_neutral_face_loop.thisRepN,post_neutral_face_loop.thisTrialN,post_neutral_face_loop.thisN,post_neutral_face_loop.thisIndex,pre_rating_scale.response,pre_rating_scale.rt,practice_response.keys,practice_response.corr,practice_response.rt,real_RL_response.keys,real_RL_response.corr,real_RL_response.rt,post_rating_scale.response,post_rating_scale.rt,participant,response,date,expName,frameRate,
logs/sub-98/stims_session-plusneu.csv,logs/sub-98/trials_phase-learning_session-plusneu.csv,win je niks.,dat je niks wint.,(0 euro gewonnen), ,plusneu,eerste,1,rating,valence,Hoe prettig vind jij dit gezicht?,None,logs/sub-98/anim-neutral_id-1339_gender-female_rewardprob-36_session-plusneu.png,80,,,,,,0,0,0,0,0,0,0,0,0,0,0,2,,,,,,,,,,,,,,,,,2,4.22,,,,,,,,,98,keyboard,2018_Oct_09_1104,pilot_RL,59.952793529799195,
logs/sub-98/stims_session-plusneu.csv,logs/sub-98/trials_phase-learning_session-plusneu.csv,win je niks.,dat je niks wint.,(0 euro gewonnen), ,plusneu,eerste,1,rating,valence,Hoe prettig vind jij dit gezicht?,None,logs/sub-98/anim-neutral_id-1356_gender-female_rewardprob-64_session-plusneu.png,80,,,,,,0,0,0,0,0,0,0,0,0,1,1,1,,,,,,,,,,,,,,,,,1,2.92,,,,,,,,,98,keyboard,2018_Oct_09_1104,pilot_RL,59.952793529799195,
logs/sub-98/stims_session-plusneu.csv,logs/sub-98/trials_phase-learning_session-plusneu.csv,win je niks.,dat je niks wint.,(0 euro gewonnen), ,plusneu,eerste,1,rating,valence,Hoe prettig vind jij dit gezicht?,None,logs/sub-98/anim-neutral_id-1293_gender-female_rewardprob-80_session-plusneu.png,80,,,,,,0,0,0,0,0,0,0,0,0,2,2,0,,,,,,,,,,,,,,,,,-3,3.419,,,,,,,,,98,keyboard,2018_Oct_09_1104,pilot_RL,59.952793529799195,
logs/sub-98/stims_session-plusneu.csv,logs/sub-98/trials_phase-learning_session-plusneu.csv,win je niks.,dat je niks wint.,(0 euro gewonnen), ,plusneu,eerste,1,rating,valence,Hoe prettig vind jij dit gezicht?,None,logs/sub-98/anim-neutral_id-1290_gender-female_rewardprob-20_session-plusneu.png,80,,,,,,0,0,0,0,0,0,0,0,0,3,3,3,,,,,,,,,,,,,,,,,-1,4.019,,,,,,,,,98,keyboard,2018_Oct_09_1104,pilot_RL,59.952793529799195,
logs/sub-98/stims_session-plusneu.csv,logs/sub-98/trials_phase-learning_session-plusneu.csv,win je niks.,dat je niks wint.,(0 euro gewonnen), ,plusneu,eerste,1,rating,dominance,Hoe dominant vind jij dit gezicht?,None,logs/sub-98/anim-neutral_id-1293_gender-female_rewardprob-80_session-plusneu.png,80,,,,,,0,0,0,0,0,1,1,4,0,0,0,0,,,,,,,,,,,,,,,,,-2,3.853,,,,,,,,,98,keyboard,2018_Oct_09_1104,pilot_RL,59.952793529799195,
logs/sub-98/stims_session-plusneu.csv,logs/sub-98/trials_phase-learning_session-plusneu.csv,win je niks.,dat je niks wint.,(0 euro gewonnen), ,plusneu,eerste,1,rating,dominance,Hoe dominant vind jij dit gezicht?,None,logs/sub-98/anim-neutral_id-1356_gender-female_rewardprob-64_session-plusneu.png,80,,,,,,0,0,0,0,0,1,1,4,0,1,1,1,,,,,,,,,,,,,,,,,-3,6.236,,,,,,,,,98,keyboard,2018_Oct_09_1104,pilot_RL,59.952793529799195,
logs/sub-98/stims_session-plusneu.csv,logs/sub-98/trials_phase-learning_session-plusneu.csv,win je niks.,dat je niks wint.,(0 euro gewonnen), ,plusneu,eerste,1,rating,dominance,Hoe dominant vind jij dit gezicht?,None,logs/sub-98/anim-neutral_id-1290_gender-female_rewardprob-20_session-plusneu.png,80,,,,,,0,0,0,0,0,1,1,4,0,2,2,3,,,,,,,,,,,,,,,,,3,2.403,,,,,,,,,98,keyboard,2018_Oct_09_1104,pilot_RL,59.952793529799195,
logs/sub-98/stims_session-plusneu.csv,logs/sub-98/trials_phase-learning_session-plusneu.csv,win je niks.,dat je niks wint.,(0 euro gewonnen), ,plusneu,eerste,1,rating,dominance,Hoe dominant vind jij dit gezicht?,None,logs/sub-98/anim-neutral_id-1339_gender-female_rewardprob-36_session-plusneu.png,80,,,,,,0,0,0,0,0,1,1,4,0,3,3,2,,,,,,,,,,,,,,,,,-2,3.169,,,,,,,,,98,keyboard,2018_Oct_09_1104,pilot_RL,59.952793529799195,
logs/sub-98/stims_session-plusneu.csv,logs/sub-98/trials_phase-learning_session-plusneu.csv,win je niks.,dat je niks wint.,(0 euro gewonnen), ,plusneu,eerste,1,rating,attractiveness,Hoe aantrekkelijk vind jij dit gezicht?,None,logs/sub-98/anim-neutral_id-1356_gender-female_rewardprob-64_session-plusneu.png,80,,,,,,0,0,0,0,0,2,2,2,0,0,0,1,,,,,,,,,,,,,,,,,0,8.17,,,,,,,,,98,keyboard,2018_Oct_09_1104,pilot_RL,59.952793529799195,
logs/sub-98/stims_session-plusneu.csv,logs/sub-98/trials_phase-learning_session-plusneu.csv,win je niks.,dat je niks wint.,(0 euro gewonnen), ,plusneu,eerste,1,rating,attractiveness,Hoe aantrekkelijk vind jij dit gezicht?,None,logs/sub-98/anim-neutral_id-1339_gender-female_rewardprob-36_session-plusneu.png,80,,,,,,0,0,0,0,0,2,2,2,0,1,1,2,,,,,,,,,,,,,,,,,-1,1.92,,,,,,,,,98,keyboard,2018_Oct_09_1104,pilot_RL,59.952793529799195,
logs/sub-98/stims_session-plusneu.csv,logs/sub-98/trials_phase-learning_session-plusneu.csv,win je niks.,dat je niks wint.,(0 euro gewonnen), ,plusneu,eerste,1,rating,attractiveness,Hoe aantrekkelijk vind jij dit gezicht?,None,logs/sub-98/anim-neutral_id-1293_gender-female_rewardprob-80_session-plusneu.png,80,,,,,,0,0,0,0,0,2,2,2,0,2,2,0,,,,,,,,,,,,,,,,,-4,2.354,,,,,,,,,98,keyboard,2018_Oct_09_1104,pilot_RL,59.952793529799195,
logs/sub-98/stims_session-plusneu.csv,logs/sub-98/trials_phase-learning_session-plusneu.csv,win je niks.,dat je niks wint.,(0 euro gewonnen), ,plusneu,eerste,1,rating,attractiveness,Hoe aantrekkelijk vind jij dit gezicht?,None,logs/sub-98/anim-neutral_id-1290_gender-female_rewardprob-20_session-plusneu.png,80,,,,,,0,0,0,0,0,2,2,2,0,3,3,3,,,,,,,,,,,,,,,,,2,12.053,,,,,,,,,98,keyboard,2018_Oct_09_1104,pilot_RL,59.952793529799195,
logs/sub-98/stims_session-plusneu.csv,logs/sub-98/trials_phase-learning_session-plusneu.csv,win je niks.,dat je niks wint.,(0 euro gewonnen), ,plusneu,eerste,1,rating,trustworthiness,Hoe betrouwbaar vind jij dit gezicht?,None,logs/sub-98/anim-neutral_id-1290_gender-female_rewardprob-20_session-plusneu.png,80,,,,,,0,0,0,0,0,3,3,3,0,0,0,3,,,,,,,,,,,,,,,,,0,2.954,,,,,,,,,98,keyboard,2018_Oct_09_1104,pilot_RL,59.952793529799195,
logs/sub-98/stims_session-plusneu.csv,logs/sub-98/trials_phase-learning_session-plusneu.csv,win je niks.,dat je niks wint.,(0 euro gewonnen), ,plusneu,eerste,1,rating,trustworthiness,Hoe betrouwbaar vind jij dit gezicht?,None,logs/sub-98/anim-neutral_id-1356_gender-female_rewardprob-64_session-plusneu.png,80,,,,,,0,0,0,0,0,3,3,3,0,1,1,1,,,,,,,,,,,,,,,,,1,3.287,,,,,,,,,98,keyboard,2018_Oct_09_1104,pilot_RL,59.952793529799195,
logs/sub-98/stims_session-plusneu.csv,logs/sub-98/trials_phase-learning_session-plusneu.csv,win je niks.,dat je niks wint.,(0 euro gewonnen), ,plusneu,eerste,1,rating,trustworthiness,Hoe betrouwbaar vind jij dit gezicht?,None,logs/sub-98/anim-neutral_id-1339_gender-female_rewardprob-36_session-plusneu.png,80,,,,,,0,0,0,0,0,3,3,3,0,2,2,2,,,,,,,,,,,,,,,,,0,4.103,,,,,,,,,98,keyboard,2018_Oct_09_1104,pilot_RL,59.952793529799195,
logs/sub-98/stims_session-plusneu.csv,logs/sub-98/trials_phase-learning_session-plusneu.csv,win je niks.,dat je niks wint.,(0 euro gewonnen), ,plusneu,eerste,1,rating,trustworthiness,Hoe betrouwbaar vind jij dit gezicht?,None,logs/sub-98/anim-neutral_id-1293_gender-female_rewardprob-80_session-plusneu.png,80,,,,,,0,0,0,0,0,3,3,3,0,3,3,0,,,,,,,,,,,,,,,,,-3,2.57,,,,,,,,,98,keyboard,2018_Oct_09_1104,pilot_RL,59.952793529799195,
logs/sub-98/stims_session-plusneu.csv,logs/sub-98/trials_phase-learning_session-plusneu.csv,win je niks.,dat je niks wint.,(0 euro gewonnen), ,plusneu,eerste,1,rating,arousal,Hoe 'emotioneel opwindend' vind jij dit gezicht?,None,logs/sub-98/anim-neutral_id-1293_gender-female_rewardprob-80_session-plusneu.png,80,,,,,,0,0,0,0,0,4,4,1,0,0,0,0,,,,,,,,,,,,,,,,,1,88.335,,,,,,,,,98,keyboard,2018_Oct_09_1104,pilot_RL,59.952793529799195,
logs/sub-98/stims_session-plusneu.csv,logs/sub-98/trials_phase-learning_session-plusneu.csv,win je niks.,dat je niks wint.,(0 euro gewonnen), ,plusneu,eerste,1,rating,arousal,Hoe 'emotioneel opwindend' vind jij dit gezicht?,None,logs/sub-98/anim-neutral_id-1356_gender-female_rewardprob-64_session-plusneu.png,80,,,,,,0,0,0,0,0,4,4,1,0,1,1,1,,,,,,,,,,,,,,,,,1,5.303,,,,,,,,,98,keyboard,2018_Oct_09_1104,pilot_RL,59.952793529799195,
logs/sub-98/stims_session-plusneu.csv,logs/sub-98/trials_phase-learning_session-plusneu.csv,win je niks.,dat je niks wint.,(0 euro gewonnen), ,plusneu,eerste,1,rating,arousal,Hoe 'emotioneel opwindend' vind jij dit gezicht?,None,logs/sub-98/anim-neutral_id-1339_gender-female_rewardprob-36_session-plusneu.png,80,,,,,,0,0,0,0,0,4,4,1,0,2,2,2,,,,,,,,,,,,,,,,,0,1.737,,,,,,,,,98,keyboard,2018_Oct_09_1104,pilot_RL,59.952793529799195,
logs/sub-98/stims_session-plusneu.csv,logs/sub-98/trials_phase-learning_session-plusneu.csv,win je niks.,dat je niks wint.,(0 euro gewonnen), ,plusneu,eerste,1,rating,arousal,Hoe 'emotioneel opwindend' vind jij dit gezicht?,None,logs/sub-98/anim-neutral_id-1290_gender-female_rewardprob-20_session-plusneu.png,80,,,,,,0,0,0,0,0,4,4,1,0,3,3,3,,,,,,,,,,,,,,,,,4,3.804,,,,,,,,,98,keyboard,2018_Oct_09_1104,pilot_RL,59.952793529799195,
logs/sub-98/stims_session-plusneu.csv,logs/sub-98/trials_phase-learning_session-plusneu.csv,win je niks.,dat je niks wint.,(0 euro gewonnen), ,plusneu,eerste,1,practice,,,,,,70_vs_30,stims/practice_stims/bush.jpg,stims/practice_stims/trump.jpg,f,stims/practice_stims/trump.jpg,0,0,0,0,,,,,,,,,0,0,0,17,,,,,,,,,,,,,,,f,1,1.1699605680041714,,,,,,98,keyboard,2018_Oct_09_1104,pilot_RL,59.952793529799195,
logs/sub-98/stims_session-plusneu.csv,logs/sub-98/trials_phase-learning_session-plusneu.csv,win je niks.,dat je niks wint.,(0 euro gewonnen), ,plusneu,eerste,1,practice,,,,,,70_vs_30,stims/practice_stims/trump.jpg,stims/practice_stims/bush.jpg,j,stims/practice_stims/bush.jpg,0,0,0,0,,,,,,,,,0,1,1,11,,,,,,,,,,,,,,,j,1,0.8360840200039092,,,,,,98,keyboard,2018_Oct_09_1104,pilot_RL,59.952793529799195,
logs/sub-98/stims_session-plusneu.csv,logs/sub-98/trials_phase-learning_session-plusneu.csv,win je niks.,dat je niks wint.,(0 euro gewonnen), ,plusneu,eerste,1,practice,,,,,,90_vs_10,stims/practice_stims/clinton.jpg,stims/practice_stims/obama.jpg,j,stims/practice_stims/obama.jpg,0,0,0,0,,,,,,,,,0,2,2,5,,,,,,,,,,,,,,,j,1,1.1698715389939025,,,,,,98,keyboard,2018_Oct_09_1104,pilot_RL,59.952793529799195,
logs/sub-98/stims_session-plusneu.csv,logs/sub-98/trials_phase-learning_session-plusneu.csv,win je niks.,dat je niks wint.,(0 euro gewonnen), ,plusneu,eerste,1,practice,,,,,,90_vs_10,stims/practice_stims/clinton.jpg,stims/practice_stims/obama.jpg,j,stims/practice_stims/obama.jpg,0,0,0,0,,,,,,,,,0,3,3,8,,,,,,,,,,,,,,,j,1,0.4527697640005499,,,,,,98,keyboard,2018_Oct_09_1104,pilot_RL,59.952793529799195,
logs/sub-98/stims_session-plusneu.csv,logs/sub-98/trials_phase-learning_session-plusneu.csv,win je niks.,dat je niks wint.,(0 euro gewonnen), ,plusneu,eerste,1,practice,,,,,,90_vs_10,stims/practice_stims/clinton.jpg,stims/practice_stims/obama.jpg,j,stims/practice_stims/obama.jpg,0,0,0,0,,,,,,,,,0,4,4,7,,,,,,,,,,,,,,,j,1,0.8358791320060845,,,,,,98,keyboard,2018_Oct_09_1104,pilot_RL,59.952793529799195,
logs/sub-98/stims_session-plusneu.csv,logs/sub-98/trials_phase-learning_session-plusneu.csv,win je niks.,dat je niks wint.,(0 euro gewonnen), ,plusneu,eerste,1,practice,,,,,,90_vs_10,stims/practice_stims/clinton.jpg,stims/practice_stims/obama.jpg,j,stims/practice_stims/obama.jpg,0,0,0,0,,,,,,,,,0,5,5,6,,,,,,,,,,,,,,,j,1,0.6349806950020138,,,,,,98,keyboard,2018_Oct_09_1104,pilot_RL,59.952793529799195,
logs/sub-98/stims_session-plusneu.csv,logs/sub-98/trials_phase-learning_session-plusneu.csv,win je niks.,dat je niks wint.,(0 euro gewonnen), ,plusneu,eerste,1,practice,,,,,,70_vs_30,stims/practice_stims/trump.jpg,stims/practice_stims/bush.jpg,f,stims/practice_stims/trump.jpg,0,0,0,0,,,,,,,,,0,6,6,14,,,,,,,,,,,,,,,j,0,0.8698925170028815,,,,,,98,keyboard,2018_Oct_09_1104,pilot_RL,59.952793529799195,
logs/sub-98/stims_session-plusneu.csv,logs/sub-98/trials_phase-learning_session-plusneu.csv,win je niks.,dat je niks wint.,(0 euro gewonnen), ,plusneu,eerste,1,practice,,,,,,90_vs_10,stims/practice_stims/obama.jpg,stims/practice_stims/clinton.jpg,f,stims/practice_stims/obama.jpg,0,0,0,0,,,,,,,,,0,7,7,0,,,,,,,,,,,,,,,f,1,0.9194985500071198,,,,,,98,keyboard,2018_Oct_09_1104,pilot_RL,59.952793529799195,
logs/sub-98/stims_session-plusneu.csv,logs/sub-98/trials_phase-learning_session-plusneu.csv,win je niks.,dat je niks wint.,(0 euro gewonnen), ,plusneu,eerste,1,practice,,,,,,70_vs_30,stims/practice_stims/bush.jpg,stims/practice_stims/trump.jpg,j,stims/practice_stims/trump.jpg,0,0,0,0,,,,,,,,,0,8,8,19,,,,,,,,,,,,,,,f,0,0.5851630980032496,,,,,,98,keyboard,2018_Oct_09_1104,pilot_RL,59.952793529799195,
logs/sub-98/stims_session-plusneu.csv,logs/sub-98/trials_phase-learning_session-plusneu.csv,win je niks.,dat je niks wint.,(0 euro gewonnen), ,plusneu,eerste,1,practice,,,,,,70_vs_30,stims/practice_stims/trump.jpg,stims/practice_stims/bush.jpg,j,stims/practice_stims/bush.jpg,0,0,0,0,,,,,,,,,0,9,9,12,,,,,,,,,,,,,,,j,1,1.1359363740048138,,,,,,98,keyboard,2018_Oct_09_1104,pilot_RL,59.952793529799195,
logs/sub-98/stims_session-plusneu.csv,logs/sub-98/trials_phase-learning_session-plusneu.csv,win je niks.,dat je niks wint.,(0 euro gewonnen), ,plusneu,eerste,1,practice,,,,,,70_vs_30,stims/practice_stims/bush.jpg,stims/practice_stims/trump.jpg,f,stims/practice_stims/trump.jpg,0,0,0,0,,,,,,,,,0,10,10,16,,,,,,,,,,,,,,,f,1,1.019968411012087,,,,,,98,keyboard,2018_Oct_09_1104,pilot_RL,59.952793529799195,
logs/sub-98/stims_session-plusneu.csv,logs/sub-98/trials_phase-learning_session-plusneu.csv,win je niks.,dat je niks wint.,(0 euro gewonnen), ,plusneu,eerste,1,practice,,,,,,90_vs_10,stims/practice_stims/obama.jpg,stims/practice_stims/clinton.jpg,f,stims/practice_stims/obama.jpg,0,0,0,0,,,,,,,,,0,11,11,4,,,,,,,,,,,,,,,f,1,0.8698788699985016,,,,,,98,keyboard,2018_Oct_09_1104,pilot_RL,59.952793529799195,
logs/sub-98/stims_session-plusneu.csv,logs/sub-98/trials_phase-learning_session-plusneu.csv,win je niks.,dat je niks wint.,(0 euro gewonnen), ,plusneu,eerste,1,practice,,,,,,70_vs_30,stims/practice_stims/bush.jpg,stims/practice_stims/trump.jpg,j,stims/practice_stims/trump.jpg,0,0,0,0,,,,,,,,,0,12,12,18,,,,,,,,,,,,,,,f,0,0.819326616008766,,,,,,98,keyboard,2018_Oct_09_1104,pilot_RL,59.952793529799195,
logs/sub-98/stims_session-plusneu.csv,logs/sub-98/trials_phase-learning_session-plusneu.csv,win je niks.,dat je niks wint.,(0 euro gewonnen), ,plusneu,eerste,1,practice,,,,,,70_vs_30,stims/practice_stims/trump.jpg,stims/practice_stims/bush.jpg,j,stims/practice_stims/bush.jpg,0,0,0,0,,,,,,,,,0,13,13,13,,,,,,,,,,,,,,,j,1,1.0691419899958419,,,,,,98,keyboard,2018_Oct_09_1104,pilot_RL,59.952793529799195,
logs/sub-98/stims_session-plusneu.csv,logs/sub-98/trials_phase-learning_session-plusneu.csv,win je niks.,dat je niks wint.,(0 euro gewonnen), ,plusneu,eerste,1,practice,,,,,,90_vs_10,stims/practice_stims/obama.jpg,stims/practice_stims/clinton.jpg,f,stims/practice_stims/obama.jpg,0,0,0,0,,,,,,,,,0,14,14,3,,,,,,,,,,,,,,,f,1,0.768393054997432,,,,,,98,keyboard,2018_Oct_09_1104,pilot_RL,59.952793529799195,
logs/sub-98/stims_session-plusneu.csv,logs/sub-98/trials_phase-learning_session-plusneu.csv,win je niks.,dat je niks wint.,(0 euro gewonnen), ,plusneu,eerste,1,practice,,,,,,90_vs_10,stims/practice_stims/obama.jpg,stims/practice_stims/clinton.jpg,f,stims/practice_stims/obama.jpg,0,0,0,0,,,,,,,,,0,15,15,2,,,,,,,,,,,,,,,f,1,1.2027663829940138,,,,,,98,keyboard,2018_Oct_09_1104,pilot_RL,59.952793529799195,
logs/sub-98/stims_session-plusneu.csv,logs/sub-98/trials_phase-learning_session-plusneu.csv,win je niks.,dat je niks wint.,(0 euro gewonnen), ,plusneu,eerste,1,practice,,,,,,70_vs_30,stims/practice_stims/bush.jpg,stims/practice_stims/trump.jpg,f,stims/practice_stims/bush.jpg,0,0,0,0,,,,,,,,,0,16,16,15,,,,,,,,,,,,,,,j,0,0.7036314009892521,,,,,,98,keyboard,2018_Oct_09_1104,pilot_RL,59.952793529799195,
logs/sub-98/stims_session-plusneu.csv,logs/sub-98/trials_phase-learning_session-plusneu.csv,win je niks.,dat je niks wint.,(0 euro gewonnen), ,plusneu,eerste,1,practice,,,,,,90_vs_10,stims/practice_stims/obama.jpg,stims/practice_stims/clinton.jpg,f,stims/practice_stims/obama.jpg,0,0,0,0,,,,,,,,,0,17,17,1,,,,,,,,,,,,,,,f,1,0.9862172360008117,,,,,,98,keyboard,2018_Oct_09_1104,pilot_RL,59.952793529799195,
logs/sub-98/stims_session-plusneu.csv,logs/sub-98/trials_phase-learning_session-plusneu.csv,win je niks.,dat je niks wint.,(0 euro gewonnen), ,plusneu,eerste,1,practice,,,,,,70_vs_30,stims/practice_stims/trump.jpg,stims/practice_stims/bush.jpg,j,stims/practice_stims/bush.jpg,0,0,0,0,,,,,,,,,0,18,18,10,,,,,,,,,,,,,,,f,0,0.86992813400866,,,,,,98,keyboard,2018_Oct_09_1104,pilot_RL,59.952793529799195,
logs/sub-98/stims_session-plusneu.csv,logs/sub-98/trials_phase-learning_session-plusneu.csv,win je niks.,dat je niks wint.,(0 euro gewonnen), ,plusneu,eerste,1,practice,,,,,,90_vs_10,stims/practice_stims/clinton.jpg,stims/practice_stims/obama.jpg,f,stims/practice_stims/clinton.jpg,0,0,0,0,,,,,,,,,0,19,19,9,,,,,,,,,,,,,,,j,0,1.0696687699964968,,,,,,98,keyboard,2018_Oct_09_1104,pilot_RL,59.952793529799195,
logs/sub-98/stims_session-plusneu.csv,logs/sub-98/trials_phase-learning_session-plusneu.csv,win je niks.,dat je niks wint.,(0 euro gewonnen), ,plusneu,eerste,1,learning,,,,,,80_vs_20,logs/sub-98/anim-neutral_id-1293_gender-female_rewardprob-80_session-plusneu.png,logs/sub-98/anim-neutral_id-1290_gender-female_rewardprob-20_session-plusneu.png,f,,0,0,0,0,,,,,,,,,,,,,0,0,0,11,,,,,,,,,,,,,,j,0,0.9694418569997652,,,98,keyboard,2018_Oct_09_1104,pilot_RL,59.952793529799195,
logs/sub-98/stims_session-plusneu.csv,logs/sub-98/trials_phase-learning_session-plusneu.csv,win je niks.,dat je niks wint.,(0 euro gewonnen), ,plusneu,eerste,1,learning,,,,,,80_vs_20,logs/sub-98/anim-neutral_id-1293_gender-female_rewardprob-80_session-plusneu.png,logs/sub-98/anim-neutral_id-1290_gender-female_rewardprob-20_session-plusneu.png,f,,0,0,0,0,,,,,,,,,,,,,0,1,1,16,,,,,,,,,,,,,,f,1,0.5691556169913383,,,98,keyboard,2018_Oct_09_1104,pilot_RL,59.952793529799195,
logs/sub-98/stims_session-plusneu.csv,logs/sub-98/trials_phase-learning_session-plusneu.csv,win je niks.,dat je niks wint.,(0 euro gewonnen), ,plusneu,eerste,1,learning,,,,,,80_vs_20,logs/sub-98/anim-neutral_id-1293_gender-female_rewardprob-80_session-plusneu.png,logs/sub-98/anim-neutral_id-1290_gender-female_rewardprob-20_session-plusneu.png,f,,0,0,0,0,,,,,,,,,,,,,0,2,2,5,,,,,,,,,,,,,,f,1,1.1200825010018889,,,98,keyboard,2018_Oct_09_1104,pilot_RL,59.952793529799195,
logs/sub-98/stims_session-plusneu.csv,logs/sub-98/trials_phase-learning_session-plusneu.csv,win je niks.,dat je niks wint.,(0 euro gewonnen), ,plusneu,eerste,1,learning,,,,,,64_vs_36,logs/sub-98/anim-neutral_id-1356_gender-female_rewardprob-64_session-plusneu.png,logs/sub-98/anim-neutral_id-1339_gender-female_rewardprob-36_session-plusneu.png,j,,0,0,0,0,,,,,,,,,,,,,0,3,3,68,,,,,,,,,,,,,,j,1,1.4353838600072777,,,98,keyboard,2018_Oct_09_1104,pilot_RL,59.952793529799195,
logs/sub-98/stims_session-plusneu.csv,logs/sub-98/trials_phase-learning_session-plusneu.csv,win je niks.,dat je niks wint.,(0 euro gewonnen), ,plusneu,eerste,1,learning,,,,,,64_vs_36,logs/sub-98/anim-neutral_id-1356_gender-female_rewardprob-64_session-plusneu.png,logs/sub-98/anim-neutral_id-1339_gender-female_rewardprob-36_session-plusneu.png,f,,0,0,0,0,,,,,,,,,,,,,0,4,4,57,,,,,,,,,,,,,,j,0,0.6341871350014117,,,98,keyboard,2018_Oct_09_1104,pilot_RL,59.952793529799195,
logs/sub-98/stims_session-plusneu.csv,logs/sub-98/trials_phase-learning_session-plusneu.csv,win je niks.,dat je niks wint.,(0 euro gewonnen), ,plusneu,eerste,1,learning,,,,,,80_vs_20,logs/sub-98/anim-neutral_id-1290_gender-female_rewardprob-20_session-plusneu.png,logs/sub-98/anim-neutral_id-1293_gender-female_rewardprob-80_session-plusneu.png,j,,0,0,0,0,,,,,,,,,,,,,0,5,5,45,,,,,,,,,,,,,,f,0,1.068666717997985,,,98,keyboard,2018_Oct_09_1104,pilot_RL,59.952793529799195,
logs/sub-98/stims_session-plusneu.csv,logs/sub-98/trials_phase-learning_session-plusneu.csv,win je niks.,dat je niks wint.,(0 euro gewonnen), ,plusneu,eerste,1,learning,,,,,,64_vs_36,logs/sub-98/anim-neutral_id-1339_gender-female_rewardprob-36_session-plusneu.png,logs/sub-98/anim-neutral_id-1356_gender-female_rewardprob-64_session-plusneu.png,j,,0,0,0,0,,,,,,,,,,,,,0,6,6,98,,,,,,,,,,,,,,f,0,1.5506663550040685,,,98,keyboard,2018_Oct_09_1104,pilot_RL,59.952793529799195,
logs/sub-98/stims_session-plusneu.csv,logs/sub-98/trials_phase-learning_session-plusneu.csv,win je niks.,dat je niks wint.,(0 euro gewonnen), ,plusneu,eerste,1,learning,,,,,,80_vs_20,logs/sub-98/anim-neutral_id-1290_gender-female_rewardprob-20_session-plusneu.png,logs/sub-98/anim-neutral_id-1293_gender-female_rewardprob-80_session-plusneu.png,j,,0,0,0,0,,,,,,,,,,,,,0,7,7,49,,,,,,,,,,,,,,j,1,0.7023766140046064,,,98,keyboard,2018_Oct_09_1104,pilot_RL,59.952793529799195,
logs/sub-98/stims_session-plusneu.csv,logs/sub-98/trials_phase-learning_session-plusneu.csv,win je niks.,dat je niks wint.,(0 euro gewonnen), ,plusneu,eerste,1,learning,,,,,,80_vs_20,logs/sub-98/anim-neutral_id-1290_gender-female_rewardprob-20_session-plusneu.png,logs/sub-98/anim-neutral_id-1293_gender-female_rewardprob-80_session-plusneu.png,f,,0,0,0,0,,,,,,,,,,,,,0,8,8,28,,,,,,,,,,,,,,j,0,1.0484433450037614,,,98,keyboard,2018_Oct_09_1104,pilot_RL,59.952793529799195,
logs/sub-98/stims_session-plusneu.csv,logs/sub-98/trials_phase-learning_session-plusneu.csv,win je niks.,dat je niks wint.,(0 euro gewonnen), ,plusneu,eerste,1,learning,,,,,,64_vs_36,logs/sub-98/anim-neutral_id-1339_gender-female_rewardprob-36_session-plusneu.png,logs/sub-98/anim-neutral_id-1356_gender-female_rewardprob-64_session-plusneu.png,j,,0,0,0,0,,,,,,,,,,,,,0,9,9,96,,,,,,,,,,,,,,j,1,1.318898484998499,,,98,keyboard,2018_Oct_09_1104,pilot_RL,59.952793529799195,
logs/sub-98/stims_session-plusneu.csv,logs/sub-98/trials_phase-learning_session-plusneu.csv,win je niks.,dat je niks wint.,(0 euro gewonnen), ,plusneu,eerste,1,learning,,,,,,80_vs_20,logs/sub-98/anim-neutral_id-1290_gender-female_rewardprob-20_session-plusneu.png,logs/sub-98/anim-neutral_id-1293_gender-female_rewardprob-80_session-plusneu.png,j,,0,0,0,0,,,,,,,,,,,,,0,10,10,39,,,,,,,,,,,,,,j,1,0.9847051020042272,,,98,keyboard,2018_Oct_09_1104,pilot_RL,59.952793529799195,
logs/sub-98/stims_session-plusneu.csv,logs/sub-98/trials_phase-learning_session-plusneu.csv,win je niks.,dat je niks wint.,(0 euro gewonnen), ,plusneu,eerste,1,learning,,,,,,64_vs_36,logs/sub-98/anim-neutral_id-1356_gender-female_rewardprob-64_session-plusneu.png,logs/sub-98/anim-neutral_id-1339_gender-female_rewardprob-36_session-plusneu.png,j,,0,0,0,0,,,,,,,,,,,,,0,11,11,71,,,,,,,,,,,,,,f,0,1.0337801269924967,,,98,keyboard,2018_Oct_09_1104,pilot_RL,59.952793529799195,
logs/sub-98/stims_session-plusneu.csv,logs/sub-98/trials_phase-learning_session-plusneu.csv,win je niks.,dat je niks wint.,(0 euro gewonnen), ,plusneu,eerste,1,learning,,,,,,64_vs_36,logs/sub-98/anim-neutral_id-1339_gender-female_rewardprob-36_session-plusneu.png,logs/sub-98/anim-neutral_id-1356_gender-female_rewardprob-64_session-plusneu.png,j,,0,0,0,0,,,,,,,,,,,,,0,12,12,87,,,,,,,,,,,,,,j,1,1.4006135859963251,,,98,keyboard,2018_Oct_09_1104,pilot_RL,59.952793529799195,
logs/sub-98/stims_session-plusneu.csv,logs/sub-98/trials_phase-learning_session-plusneu.csv,win je niks.,dat je niks wint.,(0 euro gewonnen), ,plusneu,eerste,1,learning,,,,,,80_vs_20,logs/sub-98/anim-neutral_id-1290_gender-female_rewardprob-20_session-plusneu.png,logs/sub-98/anim-neutral_id-1293_gender-female_rewardprob-80_session-plusneu.png,j,,0,0,0,0,,,,,,,,,,,,,0,13,13,30,,,,,,,,,,,,,,j,1,1.0191330520028714,,,98,keyboard,2018_Oct_09_1104,pilot_RL,59.952793529799195,
logs/sub-98/stims_session-plusneu.csv,logs/sub-98/trials_phase-learning_session-plusneu.csv,win je niks.,dat je niks wint.,(0 euro gewonnen), ,plusneu,eerste,1,learning,,,,,,80_vs_20,logs/sub-98/anim-neutral_id-1293_gender-female_rewardprob-80_session-plusneu.png,logs/sub-98/anim-neutral_id-1290_gender-female_rewardprob-20_session-plusneu.png,f,,0,0,0,0,,,,,,,,,,,,,0,14,14,19,,,,,,,,,,,,,,f,1,1.2174060409888625,,,98,keyboard,2018_Oct_09_1104,pilot_RL,59.952793529799195,
logs/sub-98/stims_session-plusneu.csv,logs/sub-98/trials_phase-learning_session-plusneu.csv,win je niks.,dat je niks wint.,(0 euro gewonnen), ,plusneu,eerste,1,learning,,,,,,64_vs_36,logs/sub-98/anim-neutral_id-1356_gender-female_rewardprob-64_session-plusneu.png,logs/sub-98/anim-neutral_id-1339_gender-female_rewardprob-36_session-plusneu.png,f,,0,0,0,0,,,,,,,,,,,,,0,15,15,58,,,,,,,,,,,,,,f,1,1.169406525004888,,,98,keyboard,2018_Oct_09_1104,pilot_RL,59.952793529799195,
logs/sub-98/stims_session-plusneu.csv,logs/sub-98/trials_phase-learning_session-plusneu.csv,win je niks.,dat je niks wint.,(0 euro gewonnen), ,plusneu,eerste,1,learning,,,,,,80_vs_20,logs/sub-98/anim-neutral_id-1293_gender-female_rewardprob-80_session-plusneu.png,logs/sub-98/anim-neutral_id-1290_gender-female_rewardprob-20_session-plusneu.png,f,,0,0,0,0,,,,,,,,,,,,,0,16,16,9,,,,,,,,,,,,,,f,1,1.1329174720012816,,,98,keyboard,2018_Oct_09_1104,pilot_RL,59.952793529799195,
logs/sub-98/stims_session-plusneu.csv,logs/sub-98/trials_phase-learning_session-plusneu.csv,win je niks.,dat je niks wint.,(0 euro gewonnen), ,plusneu,eerste,1,learning,,,,,,64_vs_36,logs/sub-98/anim-neutral_id-1356_gender-female_rewardprob-64_session-plusneu.png,logs/sub-98/anim-neutral_id-1339_gender-female_rewardprob-36_session-plusneu.png,j,,0,0,0,0,,,,,,,,,,,,,0,17,17,66,,,,,,,,,,,,,,f,0,1.31794350000564,,,98,keyboard,2018_Oct_09_1104,pilot_RL,59.952793529799195,
logs/sub-98/stims_session-plusneu.csv,logs/sub-98/trials_phase-learning_session-plusneu.csv,win je niks.,dat je niks wint.,(0 euro gewonnen), ,plusneu,eerste,1,learning,,,,,,80_vs_20,logs/sub-98/anim-neutral_id-1293_gender-female_rewardprob-80_session-plusneu.png,logs/sub-98/anim-neutral_id-1290_gender-female_rewardprob-20_session-plusneu.png,f,,0,0,0,0,,,,,,,,,,,,,0,18,18,4,,,,,,,,,,,,,,f,1,0.6692788119980833,,,98,keyboard,2018_Oct_09_1104,pilot_RL,59.952793529799195,
logs/sub-98/stims_session-plusneu.csv,logs/sub-98/trials_phase-learning_session-plusneu.csv,win je niks.,dat je niks wint.,(0 euro gewonnen), ,plusneu,eerste,1,learning,,,,,,64_vs_36,logs/sub-98/anim-neutral_id-1356_gender-female_rewardprob-64_session-plusneu.png,logs/sub-98/anim-neutral_id-1339_gender-female_rewardprob-36_session-plusneu.png,f,,0,0,0,0,,,,,,,,,,,,,0,19,19,63,,,,,,,,,,,,,,j,0,0.48294661700492725,,,98,keyboard,2018_Oct_09_1104,pilot_RL,59.952793529799195,
logs/sub-98/stims_session-plusneu.csv,logs/sub-98/trials_phase-learning_session-plusneu.csv,win je niks.,dat je niks wint.,(0 euro gewonnen), ,plusneu,eerste,1,learning,,,,,,80_vs_20,logs/sub-98/anim-neutral_id-1293_gender-female_rewardprob-80_session-plusneu.png,logs/sub-98/anim-neutral_id-1290_gender-female_rewardprob-20_session-plusneu.png,j,,0,0,0,0,,,,,,,,,,,,,0,20,20,23,,,,,,,,,,,,,,f,0,0.7154339679982513,,,98,keyboard,2018_Oct_09_1104,pilot_RL,59.952793529799195,
logs/sub-98/stims_session-plusneu.csv,logs/sub-98/trials_phase-learning_session-plusneu.csv,win je niks.,dat je niks wint.,(0 euro gewonnen), ,plusneu,eerste,1,learning,,,,,,80_vs_20,logs/sub-98/anim-neutral_id-1293_gender-female_rewardprob-80_session-plusneu.png,logs/sub-98/anim-neutral_id-1290_gender-female_rewardprob-20_session-plusneu.png,f,,0,0,0,0,,,,,,,,,,,,,0,21,21,15,,,,,,,,,,,,,,f,1,0.9189500149950618,,,98,keyboard,2018_Oct_09_1104,pilot_RL,59.952793529799195,
logs/sub-98/stims_session-plusneu.csv,logs/sub-98/trials_phase-learning_session-plusneu.csv,win je niks.,dat je niks wint.,(0 euro gewonnen), ,plusneu,eerste,1,learning,,,,,,64_vs_36,logs/sub-98/anim-neutral_id-1356_gender-female_rewardprob-64_session-plusneu.png,logs/sub-98/anim-neutral_id-1339_gender-female_rewardprob-36_session-plusneu.png,f,,0,0,0,0,,,,,,,,,,,,,0,22,22,59,,,,,,,,,,,,,,f,1,0.901881357000093,,,98,keyboard,2018_Oct_09_1104,pilot_RL,59.952793529799195,
logs/sub-98/stims_session-plusneu.csv,logs/sub-98/trials_phase-learning_session-plusneu.csv,win je niks.,dat je niks wint.,(0 euro gewonnen), ,plusneu,eerste,1,learning,,,,,,64_vs_36,logs/sub-98/anim-neutral_id-1356_gender-female_rewardprob-64_session-plusneu.png,logs/sub-98/anim-neutral_id-1339_gender-female_rewardprob-36_session-plusneu.png,f,,0,0,0,0,,,,,,,,,,,,,0,23,23,64,,,,,,,,,,,,,,f,1,0.9349810679996153,,,98,keyboard,2018_Oct_09_1104,pilot_RL,59.952793529799195,
logs/sub-98/stims_session-plusneu.csv,logs/sub-98/trials_phase-learning_session-plusneu.csv,win je niks.,dat je niks wint.,(0 euro gewonnen), ,plusneu,eerste,1,learning,,,,,,80_vs_20,logs/sub-98/anim-neutral_id-1293_gender-female_rewardprob-80_session-plusneu.png,logs/sub-98/anim-neutral_id-1290_gender-female_rewardprob-20_session-plusneu.png,f,,0,0,0,0,,,,,,,,,,,,,0,24,24,6,,,,,,,,,,,,,,f,1,0.9676230410113931,,,98,keyboard,2018_Oct_09_1104,pilot_RL,59.952793529799195,
logs/sub-98/stims_session-plusneu.csv,logs/sub-98/trials_phase-learning_session-plusneu.csv,win je niks.,dat je niks wint.,(0 euro gewonnen), ,plusneu,eerste,1,learning,,,,,,64_vs_36,logs/sub-98/anim-neutral_id-1339_gender-female_rewardprob-36_session-plusneu.png,logs/sub-98/anim-neutral_id-1356_gender-female_rewardprob-64_session-plusneu.png,j,,0,0,0,0,,,,,,,,,,,,,0,25,25,88,,,,,,,,,,,,,,j,1,1.2657326890039258,,,98,keyboard,2018_Oct_09_1104,pilot_RL,59.952793529799195,
logs/sub-98/stims_session-plusneu.csv,logs/sub-98/trials_phase-learning_session-plusneu.csv,win je niks.,dat je niks wint.,(0 euro gewonnen), ,plusneu,eerste,1,learning,,,,,,64_vs_36,logs/sub-98/anim-neutral_id-1339_gender-female_rewardprob-36_session-plusneu.png,logs/sub-98/anim-neutral_id-1356_gender-female_rewardprob-64_session-plusneu.png,f,,0,0,0,0,,,,,,,,,,,,,0,26,26,78,,,,,,,,,,,,,,j,0,1.2828711769980146,,,98,keyboard,2018_Oct_09_1104,pilot_RL,59.952793529799195,
logs/sub-98/stims_session-plusneu.csv,logs/sub-98/trials_phase-learning_session-plusneu.csv,win je niks.,dat je niks wint.,(0 euro gewonnen), ,plusneu,eerste,1,learning,,,,,,80_vs_20,logs/sub-98/anim-neutral_id-1290_gender-female_rewardprob-20_session-plusneu.png,logs/sub-98/anim-neutral_id-1293_gender-female_rewardprob-80_session-plusneu.png,f,,0,0,0,0,,,,,,,,,,,,,0,27,27,29,,,,,,,,,,,,,,f,1,0.5865548840083648,,,98,keyboard,2018_Oct_09_1104,pilot_RL,59.952793529799195,
logs/sub-98/stims_session-plusneu.csv,logs/sub-98/trials_phase-learning_session-plusneu.csv,win je niks.,dat je niks wint.,(0 euro gewonnen), ,plusneu,eerste,1,learning,,,,,,80_vs_20,logs/sub-98/anim-neutral_id-1293_gender-female_rewardprob-80_session-plusneu.png,logs/sub-98/anim-neutral_id-1290_gender-female_rewardprob-20_session-plusneu.png,f,,0,0,0,0,,,,,,,,,,,,,0,28,28,3,,,,,,,,,,,,,,f,1,0.785993668003357,,,98,keyboard,2018_Oct_09_1104,pilot_RL,59.952793529799195,
logs/sub-98/stims_session-plusneu.csv,logs/sub-98/trials_phase-learning_session-plusneu.csv,win je niks.,dat je niks wint.,(0 euro gewonnen), ,plusneu,eerste,1,learning,,,,,,64_vs_36,logs/sub-98/anim-neutral_id-1339_gender-female_rewardprob-36_session-plusneu.png,logs/sub-98/anim-neutral_id-1356_gender-female_rewardprob-64_session-plusneu.png,j,,0,0,0,0,,,,,,,,,,,,,0,29,29,86,,,,,,,,,,,,,,j,1,0.9179756869998528,,,98,keyboard,2018_Oct_09_1104,pilot_RL,59.952793529799195,
logs/sub-98/stims_session-plusneu.csv,logs/sub-98/trials_phase-learning_session-plusneu.csv,win je niks.,dat je niks wint.,(0 euro gewonnen), ,plusneu,eerste,1,learning,,,,,,64_vs_36,logs/sub-98/anim-neutral_id-1339_gender-female_rewardprob-36_session-plusneu.png,logs/sub-98/anim-neutral_id-1356_gender-female_rewardprob-64_session-plusneu.png,j,,0,0,0,0,,,,,,,,,,,,,0,30,30,91,,,,,,,,,,,,,,j,1,1.7183412149897777,,,98,keyboard,2018_Oct_09_1104,pilot_RL,59.952793529799195,
logs/sub-98/stims_session-plusneu.csv,logs/sub-98/trials_phase-learning_session-plusneu.csv,win je niks.,dat je niks wint.,(0 euro gewonnen), ,plusneu,eerste,1,learning,,,,,,64_vs_36,logs/sub-98/anim-neutral_id-1356_gender-female_rewardprob-64_session-plusneu.png,logs/sub-98/anim-neutral_id-1339_gender-female_rewardprob-36_session-plusneu.png,j,,0,0,0,0,,,,,,,,,,,,,0,31,31,69,,,,,,,,,,,,,,j,1,0.9688591990125133,,,98,keyboard,2018_Oct_09_1104,pilot_RL,59.952793529799195,
logs/sub-98/stims_session-plusneu.csv,logs/sub-98/trials_phase-learning_session-plusneu.csv,win je niks.,dat je niks wint.,(0 euro gewonnen), ,plusneu,eerste,1,learning,,,,,,80_vs_20,logs/sub-98/anim-neutral_id-1293_gender-female_rewardprob-80_session-plusneu.png,logs/sub-98/anim-neutral_id-1290_gender-female_rewardprob-20_session-plusneu.png,f,,0,0,0,0,,,,,,,,,,,,,0,32,32,2,,,,,,,,,,,,,,f,1,0.7013000760052819,,,98,keyboard,2018_Oct_09_1104,pilot_RL,59.952793529799195,
logs/sub-98/stims_session-plusneu.csv,logs/sub-98/trials_phase-learning_session-plusneu.csv,win je niks.,dat je niks wint.,(0 euro gewonnen), ,plusneu,eerste,1,learning,,,,,,64_vs_36,logs/sub-98/anim-neutral_id-1339_gender-female_rewardprob-36_session-plusneu.png,logs/sub-98/anim-neutral_id-1356_gender-female_rewardprob-64_session-plusneu.png,f,,0,0,0,0,,,,,,,,,,,,,0,33,33,76,,,,,,,,,,,,,,f,1,1.2170753410027828,,,98,keyboard,2018_Oct_09_1104,pilot_RL,59.952793529799195,
logs/sub-98/stims_session-plusneu.csv,logs/sub-98/trials_phase-learning_session-plusneu.csv,win je niks.,dat je niks wint.,(0 euro gewonnen), ,plusneu,eerste,1,learning,,,,,,80_vs_20,logs/sub-98/anim-neutral_id-1293_gender-female_rewardprob-80_session-plusneu.png,logs/sub-98/anim-neutral_id-1290_gender-female_rewardprob-20_session-plusneu.png,f,,0,0,0,0,,,,,,,,,,,,,0,34,34,13,,,,,,,,,,,,,,f,1,0.7670475089980755,,,98,keyboard,2018_Oct_09_1104,pilot_RL,59.952793529799195,
logs/sub-98/stims_session-plusneu.csv,logs/sub-98/trials_phase-learning_session-plusneu.csv,win je niks.,dat je niks wint.,(0 euro gewonnen), ,plusneu,eerste,1,learning,,,,,,80_vs_20,logs/sub-98/anim-neutral_id-1290_gender-female_rewardprob-20_session-plusneu.png,logs/sub-98/anim-neutral_id-1293_gender-female_rewardprob-80_session-plusneu.png,j,,0,0,0,0,,,,,,,,,,,,,0,35,35,38,,,,,,,,,,,,,,j,1,1.0344422470079735,,,98,keyboard,2018_Oct_09_1104,pilot_RL,59.952793529799195,
logs/sub-98/stims_session-plusneu.csv,logs/sub-98/trials_phase-learning_session-plusneu.csv,win je niks.,dat je niks wint.,(0 euro gewonnen), ,plusneu,eerste,1,learning,,,,,,80_vs_20,logs/sub-98/anim-neutral_id-1290_gender-female_rewardprob-20_session-plusneu.png,logs/sub-98/anim-neutral_id-1293_gender-female_rewardprob-80_session-plusneu.png,j,,0,0,0,0,,,,,,,,,,,,,0,36,36,32,,,,,,,,,,,,,,j,1,0.6699654679978266,,,98,keyboard,2018_Oct_09_1104,pilot_RL,59.952793529799195,
logs/sub-98/stims_session-plusneu.csv,logs/sub-98/trials_phase-learning_session-plusneu.csv,win je niks.,dat je niks wint.,(0 euro gewonnen), ,plusneu,eerste,1,learning,,,,,,64_vs_36,logs/sub-98/anim-neutral_id-1356_gender-female_rewardprob-64_session-plusneu.png,logs/sub-98/anim-neutral_id-1339_gender-female_rewardprob-36_session-plusneu.png,f,,0,0,0,0,,,,,,,,,,,,,0,37,37,61,,,,,,,,,,,,,,f,1,0.8680827799980761,,,98,keyboard,2018_Oct_09_1104,pilot_RL,59.952793529799195,
logs/sub-98/stims_session-plusneu.csv,logs/sub-98/trials_phase-learning_session-plusneu.csv,win je niks.,dat je niks wint.,(0 euro gewonnen), ,plusneu,eerste,1,learning,,,,,,64_vs_36,logs/sub-98/anim-neutral_id-1339_gender-female_rewardprob-36_session-plusneu.png,logs/sub-98/anim-neutral_id-1356_gender-female_rewardprob-64_session-plusneu.png,j,,0,0,0,0,,,,,,,,,,,,,0,38,38,97,,,,,,,,,,,,,,j,1,0.9321017830079654,,,98,keyboard,2018_Oct_09_1104,pilot_RL,59.952793529799195,
logs/sub-98/stims_session-plusneu.csv,logs/sub-98/trials_phase-learning_session-plusneu.csv,win je niks.,dat je niks wint.,(0 euro gewonnen), ,plusneu,eerste,1,learning,,,,,,64_vs_36,logs/sub-98/anim-neutral_id-1356_gender-female_rewardprob-64_session-plusneu.png,logs/sub-98/anim-neutral_id-1339_gender-female_rewardprob-36_session-plusneu.png,j,,0,0,0,0,,,,,,,,,,,,,0,39,39,70,,,,,,,,,,,,,,f,0,1.1524618260009447,,,98,keyboard,2018_Oct_09_1104,pilot_RL,59.952793529799195,
logs/sub-98/stims_session-plusneu.csv,logs/sub-98/trials_phase-learning_session-plusneu.csv,win je niks.,dat je niks wint.,(0 euro gewonnen), ,plusneu,eerste,1,learning,,,,,,64_vs_36,logs/sub-98/anim-neutral_id-1356_gender-female_rewardprob-64_session-plusneu.png,logs/sub-98/anim-neutral_id-1339_gender-female_rewardprob-36_session-plusneu.png,f,,0,0,0,0,,,,,,,,,,,,,0,40,40,52,,,,,,,,,,,,,,f,1,1.0032196170068346,,,98,keyboard,2018_Oct_09_1104,pilot_RL,59.952793529799195,
logs/sub-98/stims_session-plusneu.csv,logs/sub-98/trials_phase-learning_session-plusneu.csv,win je niks.,dat je niks wint.,(0 euro gewonnen), ,plusneu,eerste,1,learning,,,,,,64_vs_36,logs/sub-98/anim-neutral_id-1339_gender-female_rewardprob-36_session-plusneu.png,logs/sub-98/anim-neutral_id-1356_gender-female_rewardprob-64_session-plusneu.png,f,,0,0,0,0,,,,,,,,,,,,,0,41,41,82,,,,,,,,,,,,,,f,1,0.9152437760058092,,,98,keyboard,2018_Oct_09_1104,pilot_RL,59.952793529799195,
logs/sub-98/stims_session-plusneu.csv,logs/sub-98/trials_phase-learning_session-plusneu.csv,win je niks.,dat je niks wint.,(0 euro gewonnen), ,plusneu,eerste,1,learning,,,,,,80_vs_20,logs/sub-98/anim-neutral_id-1290_gender-female_rewardprob-20_session-plusneu.png,logs/sub-98/anim-neutral_id-1293_gender-female_rewardprob-80_session-plusneu.png,j,,0,0,0,0,,,,,,,,,,,,,0,42,42,41,,,,,,,,,,,,,,j,1,0.9181621150055435,,,98,keyboard,2018_Oct_09_1104,pilot_RL,59.952793529799195,
logs/sub-98/stims_session-plusneu.csv,logs/sub-98/trials_phase-learning_session-plusneu.csv,win je niks.,dat je niks wint.,(0 euro gewonnen), ,plusneu,eerste,1,learning,,,,,,64_vs_36,logs/sub-98/anim-neutral_id-1339_gender-female_rewardprob-36_session-plusneu.png,logs/sub-98/anim-neutral_id-1356_gender-female_rewardprob-64_session-plusneu.png,f,,0,0,0,0,,,,,,,,,,,,,0,43,43,75,,,,,,,,,,,,,,j,0,0.9848075519985287,,,98,keyboard,2018_Oct_09_1104,pilot_RL,59.952793529799195,
logs/sub-98/stims_session-plusneu.csv,logs/sub-98/trials_phase-learning_session-plusneu.csv,win je niks.,dat je niks wint.,(0 euro gewonnen), ,plusneu,eerste,1,learning,,,,,,80_vs_20,logs/sub-98/anim-neutral_id-1290_gender-female_rewardprob-20_session-plusneu.png,logs/sub-98/anim-neutral_id-1293_gender-female_rewardprob-80_session-plusneu.png,j,,0,0,0,0,,,,,,,,,,,,,0,44,44,48,,,,,,,,,,,,,,j,1,0.952511939991382,,,98,keyboard,2018_Oct_09_1104,pilot_RL,59.952793529799195,
logs/sub-98/stims_session-plusneu.csv,logs/sub-98/trials_phase-learning_session-plusneu.csv,win je niks.,dat je niks wint.,(0 euro gewonnen), ,plusneu,eerste,1,learning,,,,,,80_vs_20,logs/sub-98/anim-neutral_id-1293_gender-female_rewardprob-80_session-plusneu.png,logs/sub-98/anim-neutral_id-1290_gender-female_rewardprob-20_session-plusneu.png,j,,0,0,0,0,,,,,,,,,,,,,0,45,45,24,,,,,,,,,,,,,,f,0,1.1326986030035187,,,98,keyboard,2018_Oct_09_1104,pilot_RL,59.952793529799195,
logs/sub-98/stims_session-plusneu.csv,logs/sub-98/trials_phase-learning_session-plusneu.csv,win je niks.,dat je niks wint.,(0 euro gewonnen), ,plusneu,eerste,1,learning,,,,,,80_vs_20,logs/sub-98/anim-neutral_id-1290_gender-female_rewardprob-20_session-plusneu.png,logs/sub-98/anim-neutral_id-1293_gender-female_rewardprob-80_session-plusneu.png,f,,0,0,0,0,,,,,,,,,,,,,0,46,46,25,,,,,,,,,,,,,,j,0,0.8190991970041068,,,98,keyboard,2018_Oct_09_1104,pilot_RL,59.952793529799195,
logs/sub-98/stims_session-plusneu.csv,logs/sub-98/trials_phase-learning_session-plusneu.csv,win je niks.,dat je niks wint.,(0 euro gewonnen), ,plusneu,eerste,1,learning,,,,,,80_vs_20,logs/sub-98/anim-neutral_id-1293_gender-female_rewardprob-80_session-plusneu.png,logs/sub-98/anim-neutral_id-1290_gender-female_rewardprob-20_session-plusneu.png,f,,0,0,0,0,,,,,,,,,,,,,0,47,47,12,,,,,,,,,,,,,,f,1,1.2344265309948241,,,98,keyboard,2018_Oct_09_1104,pilot_RL,59.952793529799195,
logs/sub-98/stims_session-plusneu.csv,logs/sub-98/trials_phase-learning_session-plusneu.csv,win je niks.,dat je niks wint.,(0 euro gewonnen), ,plusneu,eerste,1,learning,,,,,,64_vs_36,logs/sub-98/anim-neutral_id-1339_gender-female_rewardprob-36_session-plusneu.png,logs/sub-98/anim-neutral_id-1356_gender-female_rewardprob-64_session-plusneu.png,f,,0,0,0,0,,,,,,,,,,,,,0,48,48,83,,,,,,,,,,,,,,j,0,0.9171357190061826,,,98,keyboard,2018_Oct_09_1104,pilot_RL,59.952793529799195,
logs/sub-98/stims_session-plusneu.csv,logs/sub-98/trials_phase-learning_session-plusneu.csv,win je niks.,dat je niks wint.,(0 euro gewonnen), ,plusneu,eerste,1,learning,,,,,,80_vs_20,logs/sub-98/anim-neutral_id-1293_gender-female_rewardprob-80_session-plusneu.png,logs/sub-98/anim-neutral_id-1290_gender-female_rewardprob-20_session-plusneu.png,j,,0,0,0,0,,,,,,,,,,,,,0,49,49,21,,,,,,,,,,,,,,f,0,0.686581418995047,,,98,keyboard,2018_Oct_09_1104,pilot_RL,59.952793529799195,
logs/sub-98/stims_session-plusneu.csv,logs/sub-98/trials_phase-learning_session-plusneu.csv,win je niks.,dat je niks wint.,(0 euro gewonnen), ,plusneu,eerste,1,learning,,,,,,64_vs_36,logs/sub-98/anim-neutral_id-1356_gender-female_rewardprob-64_session-plusneu.png,logs/sub-98/anim-neutral_id-1339_gender-female_rewardprob-36_session-plusneu.png,f,,0,0,0,0,,,,,,,,,,,,,0,50,50,65,,,,,,,,,,,,,,j,0,1.2361160580039723,,,98,keyboard,2018_Oct_09_1104,pilot_RL,59.952793529799195,
logs/sub-98/stims_session-plusneu.csv,logs/sub-98/trials_phase-learning_session-plusneu.csv,win je niks.,dat je niks wint.,(0 euro gewonnen), ,plusneu,eerste,1,learning,,,,,,80_vs_20,logs/sub-98/anim-neutral_id-1290_gender-female_rewardprob-20_session-plusneu.png,logs/sub-98/anim-neutral_id-1293_gender-female_rewardprob-80_session-plusneu.png,j,,0,0,0,0,,,,,,,,,,,,,0,51,51,46,,,,,,,,,,,,,,j,1,0.7031893829989713,,,98,keyboard,2018_Oct_09_1104,pilot_RL,59.952793529799195,
logs/sub-98/stims_session-plusneu.csv,logs/sub-98/trials_phase-learning_session-plusneu.csv,win je niks.,dat je niks wint.,(0 euro gewonnen), ,plusneu,eerste,1,learning,,,,,,80_vs_20,logs/sub-98/anim-neutral_id-1293_gender-female_rewardprob-80_session-plusneu.png,logs/sub-98/anim-neutral_id-1290_gender-female_rewardprob-20_session-plusneu.png,f,,0,0,0,0,,,,,,,,,,,,,0,52,52,10,,,,,,,,,,,,,,f,1,0.7661854649923043,,,98,keyboard,2018_Oct_09_1104,pilot_RL,59.952793529799195,
logs/sub-98/stims_session-plusneu.csv,logs/sub-98/trials_phase-learning_session-plusneu.csv,win je niks.,dat je niks wint.,(0 euro gewonnen), ,plusneu,eerste,1,learning,,,,,,64_vs_36,logs/sub-98/anim-neutral_id-1339_gender-female_rewardprob-36_session-plusneu.png,logs/sub-98/anim-neutral_id-1356_gender-female_rewardprob-64_session-plusneu.png,f,,0,0,0,0,,,,,,,,,,,,,0,53,53,79,,,,,,,,,,,,,,j,0,1.2674729599966668,,,98,keyboard,2018_Oct_09_1104,pilot_RL,59.952793529799195,
logs/sub-98/stims_session-plusneu.csv,logs/sub-98/trials_phase-learning_session-plusneu.csv,win je niks.,dat je niks wint.,(0 euro gewonnen), ,plusneu,eerste,1,learning,,,,,,80_vs_20,logs/sub-98/anim-neutral_id-1290_gender-female_rewardprob-20_session-plusneu.png,logs/sub-98/anim-neutral_id-1293_gender-female_rewardprob-80_session-plusneu.png,j,,0,0,0,0,,,,,,,,,,,,,0,54,54,33,,,,,,,,,,,,,,j,1,0.9032017499994254,,,98,keyboard,2018_Oct_09_1104,pilot_RL,59.952793529799195,
logs/sub-98/stims_session-plusneu.csv,logs/sub-98/trials_phase-learning_session-plusneu.csv,win je niks.,dat je niks wint.,(0 euro gewonnen), ,plusneu,eerste,1,learning,,,,,,64_vs_36,logs/sub-98/anim-neutral_id-1339_gender-female_rewardprob-36_session-plusneu.png,logs/sub-98/anim-neutral_id-1356_gender-female_rewardprob-64_session-plusneu.png,j,,0,0,0,0,,,,,,,,,,,,,0,55,55,93,,,,,,,,,,,,,,f,0,0.5664328379934886,,,98,keyboard,2018_Oct_09_1104,pilot_RL,59.952793529799195,
logs/sub-98/stims_session-plusneu.csv,logs/sub-98/trials_phase-learning_session-plusneu.csv,win je niks.,dat je niks wint.,(0 euro gewonnen), ,plusneu,eerste,1,learning,,,,,,64_vs_36,logs/sub-98/anim-neutral_id-1356_gender-female_rewardprob-64_session-plusneu.png,logs/sub-98/anim-neutral_id-1339_gender-female_rewardprob-36_session-plusneu.png,f,,0,0,0,0,,,,,,,,,,,,,0,56,56,62,,,,,,,,,,,,,,j,0,1.170042020996334,,,98,keyboard,2018_Oct_09_1104,pilot_RL,59.952793529799195,
logs/sub-98/stims_session-plusneu.csv,logs/sub-98/trials_phase-learning_session-plusneu.csv,win je niks.,dat je niks wint.,(0 euro gewonnen), ,plusneu,eerste,1,learning,,,,,,80_vs_20,logs/sub-98/anim-neutral_id-1290_gender-female_rewardprob-20_session-plusneu.png,logs/sub-98/anim-neutral_id-1293_gender-female_rewardprob-80_session-plusneu.png,j,,0,0,0,0,,,,,,,,,,,,,0,57,57,31,,,,,,,,,,,,,,j,1,0.8685586179926759,,,98,keyboard,2018_Oct_09_1104,pilot_RL,59.952793529799195,
logs/sub-98/stims_session-plusneu.csv,logs/sub-98/trials_phase-learning_session-plusneu.csv,win je niks.,dat je niks wint.,(0 euro gewonnen), ,plusneu,eerste,1,learning,,,,,,64_vs_36,logs/sub-98/anim-neutral_id-1339_gender-female_rewardprob-36_session-plusneu.png,logs/sub-98/anim-neutral_id-1356_gender-female_rewardprob-64_session-plusneu.png,j,,0,0,0,0,,,,,,,,,,,,,0,58,58,85,,,,,,,,,,,,,,j,1,0.6680062399973394,,,98,keyboard,2018_Oct_09_1104,pilot_RL,59.952793529799195,
logs/sub-98/stims_session-plusneu.csv,logs/sub-98/trials_phase-learning_session-plusneu.csv,win je niks.,dat je niks wint.,(0 euro gewonnen), ,plusneu,eerste,1,learning,,,,,,80_vs_20,logs/sub-98/anim-neutral_id-1293_gender-female_rewardprob-80_session-plusneu.png,logs/sub-98/anim-neutral_id-1290_gender-female_rewardprob-20_session-plusneu.png,j,,0,0,0,0,,,,,,,,,,,,,0,59,59,22,,,,,,,,,,,,,,f,0,0.8673921290028375,,,98,keyboard,2018_Oct_09_1104,pilot_RL,59.952793529799195,
logs/sub-98/stims_session-plusneu.csv,logs/sub-98/trials_phase-learning_session-plusneu.csv,win je niks.,dat je niks wint.,(0 euro gewonnen), ,plusneu,eerste,1,learning,,,,,,64_vs_36,logs/sub-98/anim-neutral_id-1339_gender-female_rewardprob-36_session-plusneu.png,logs/sub-98/anim-neutral_id-1356_gender-female_rewardprob-64_session-plusneu.png,j,,0,0,0,0,,,,,,,,,,,,,0,60,60,92,,,,,,,,,,,,,,j,1,0.9186577720101923,,,98,keyboard,2018_Oct_09_1104,pilot_RL,59.952793529799195,
logs/sub-98/stims_session-plusneu.csv,logs/sub-98/trials_phase-learning_session-plusneu.csv,win je niks.,dat je niks wint.,(0 euro gewonnen), ,plusneu,eerste,1,learning,,,,,,64_vs_36,logs/sub-98/anim-neutral_id-1339_gender-female_rewardprob-36_session-plusneu.png,logs/sub-98/anim-neutral_id-1356_gender-female_rewardprob-64_session-plusneu.png,j,,0,0,0,0,,,,,,,,,,,,,0,61,61,89,,,,,,,,,,,,,,j,1,1.0516727869980969,,,98,keyboard,2018_Oct_09_1104,pilot_RL,59.952793529799195,
logs/sub-98/stims_session-plusneu.csv,logs/sub-98/trials_phase-learning_session-plusneu.csv,win je niks.,dat je niks wint.,(0 euro gewonnen), ,plusneu,eerste,1,learning,,,,,,64_vs_36,logs/sub-98/anim-neutral_id-1356_gender-female_rewardprob-64_session-plusneu.png,logs/sub-98/anim-neutral_id-1339_gender-female_rewardprob-36_session-plusneu.png,f,,0,0,0,0,,,,,,,,,,,,,0,62,62,56,,,,,,,,,,,,,,f,1,1.249422061999212,,,98,keyboard,2018_Oct_09_1104,pilot_RL,59.952793529799195,
logs/sub-98/stims_session-plusneu.csv,logs/sub-98/trials_phase-learning_session-plusneu.csv,win je niks.,dat je niks wint.,(0 euro gewonnen), ,plusneu,eerste,1,learning,,,,,,64_vs_36,logs/sub-98/anim-neutral_id-1339_gender-female_rewardprob-36_session-plusneu.png,logs/sub-98/anim-neutral_id-1356_gender-female_rewardprob-64_session-plusneu.png,j,,0,0,0,0,,,,,,,,,,,,,0,63,63,94,,,,,,,,,,,,,,j,1,1.26732237500255,,,98,keyboard,2018_Oct_09_1104,pilot_RL,59.952793529799195,
logs/sub-98/stims_session-plusneu.csv,logs/sub-98/trials_phase-learning_session-plusneu.csv,win je niks.,dat je niks wint.,(0 euro gewonnen), ,plusneu,eerste,1,learning,,,,,,80_vs_20,logs/sub-98/anim-neutral_id-1293_gender-female_rewardprob-80_session-plusneu.png,logs/sub-98/anim-neutral_id-1290_gender-female_rewardprob-20_session-plusneu.png,f,,0,0,0,0,,,,,,,,,,,,,0,64,64,1,,,,,,,,,,,,,,f,1,1.0012424390006345,,,98,keyboard,2018_Oct_09_1104,pilot_RL,59.952793529799195,
logs/sub-98/stims_session-plusneu.csv,logs/sub-98/trials_phase-learning_session-plusneu.csv,win je niks.,dat je niks wint.,(0 euro gewonnen), ,plusneu,eerste,1,learning,,,,,,64_vs_36,logs/sub-98/anim-neutral_id-1356_gender-female_rewardprob-64_session-plusneu.png,logs/sub-98/anim-neutral_id-1339_gender-female_rewardprob-36_session-plusneu.png,f,,0,0,0,0,,,,,,,,,,,,,0,65,65,55,,,,,,,,,,,,,,j,0,0.8857630569982575,,,98,keyboard,2018_Oct_09_1104,pilot_RL,59.952793529799195,
logs/sub-98/stims_session-plusneu.csv,logs/sub-98/trials_phase-learning_session-plusneu.csv,win je niks.,dat je niks wint.,(0 euro gewonnen), ,plusneu,eerste,1,learning,,,,,,64_vs_36,logs/sub-98/anim-neutral_id-1356_gender-female_rewardprob-64_session-plusneu.png,logs/sub-98/anim-neutral_id-1339_gender-female_rewardprob-36_session-plusneu.png,j,,0,0,0,0,,,,,,,,,,,,,0,66,66,74,,,,,,,,,,,,,,f,0,0.6855768969981,,,98,keyboard,2018_Oct_09_1104,pilot_RL,59.952793529799195,
logs/sub-98/stims_session-plusneu.csv,logs/sub-98/trials_phase-learning_session-plusneu.csv,win je niks.,dat je niks wint.,(0 euro gewonnen), ,plusneu,eerste,1,learning,,,,,,64_vs_36,logs/sub-98/anim-neutral_id-1356_gender-female_rewardprob-64_session-plusneu.png,logs/sub-98/anim-neutral_id-1339_gender-female_rewardprob-36_session-plusneu.png,f,,0,0,0,0,,,,,,,,,,,,,0,67,67,50,,,,,,,,,,,,,,f,1,1.067653963007615,,,98,keyboard,2018_Oct_09_1104,pilot_RL,59.952793529799195,
logs/sub-98/stims_session-plusneu.csv,logs/sub-98/trials_phase-learning_session-plusneu.csv,win je niks.,dat je niks wint.,(0 euro gewonnen), ,plusneu,eerste,1,learning,,,,,,80_vs_20,logs/sub-98/anim-neutral_id-1290_gender-female_rewardprob-20_session-plusneu.png,logs/sub-98/anim-neutral_id-1293_gender-female_rewardprob-80_session-plusneu.png,j,,0,0,0,0,,,,,,,,,,,,,0,68,68,44,,,,,,,,,,,,,,j,1,0.7671257609908935,,,98,keyboard,2018_Oct_09_1104,pilot_RL,59.952793529799195,
logs/sub-98/stims_session-plusneu.csv,logs/sub-98/trials_phase-learning_session-plusneu.csv,win je niks.,dat je niks wint.,(0 euro gewonnen), ,plusneu,eerste,1,learning,,,,,,80_vs_20,logs/sub-98/anim-neutral_id-1293_gender-female_rewardprob-80_session-plusneu.png,logs/sub-98/anim-neutral_id-1290_gender-female_rewardprob-20_session-plusneu.png,f,,0,0,0,0,,,,,,,,,,,,,0,69,69,8,,,,,,,,,,,,,,f,1,1.1175213670067023,,,98,keyboard,2018_Oct_09_1104,pilot_RL,59.952793529799195,
logs/sub-98/stims_session-plusneu.csv,logs/sub-98/trials_phase-learning_session-plusneu.csv,win je niks.,dat je niks wint.,(0 euro gewonnen), ,plusneu,eerste,1,learning,,,,,,80_vs_20,logs/sub-98/anim-neutral_id-1293_gender-female_rewardprob-80_session-plusneu.png,logs/sub-98/anim-neutral_id-1290_gender-female_rewardprob-20_session-plusneu.png,f,,0,0,0,0,,,,,,,,,,,,,0,70,70,14,,,,,,,,,,,,,,f,1,1.1838424489978934,,,98,keyboard,2018_Oct_09_1104,pilot_RL,59.952793529799195,
logs/sub-98/stims_session-plusneu.csv,logs/sub-98/trials_phase-learning_session-plusneu.csv,win je niks.,dat je niks wint.,(0 euro gewonnen), ,plusneu,eerste,1,learning,,,,,,80_vs_20,logs/sub-98/anim-neutral_id-1293_gender-female_rewardprob-80_session-plusneu.png,logs/sub-98/anim-neutral_id-1290_gender-female_rewardprob-20_session-plusneu.png,f,,0,0,0,0,,,,,,,,,,,,,0,71,71,7,,,,,,,,,,,,,,f,1,0.9666498019942082,,,98,keyboard,2018_Oct_09_1104,pilot_RL,59.952793529799195,
logs/sub-98/stims_session-plusneu.csv,logs/sub-98/trials_phase-learning_session-plusneu.csv,win je niks.,dat je niks wint.,(0 euro gewonnen), ,plusneu,eerste,1,learning,,,,,,64_vs_36,logs/sub-98/anim-neutral_id-1339_gender-female_rewardprob-36_session-plusneu.png,logs/sub-98/anim-neutral_id-1356_gender-female_rewardprob-64_session-plusneu.png,f,,0,0,0,0,,,,,,,,,,,,,0,72,72,81,,,,,,,,,,,,,,j,0,1.001305092999246,,,98,keyboard,2018_Oct_09_1104,pilot_RL,59.952793529799195,
logs/sub-98/stims_session-plusneu.csv,logs/sub-98/trials_phase-learning_session-plusneu.csv,win je niks.,dat je niks wint.,(0 euro gewonnen), ,plusneu,eerste,1,learning,,,,,,80_vs_20,logs/sub-98/anim-neutral_id-1290_gender-female_rewardprob-20_session-plusneu.png,logs/sub-98/anim-neutral_id-1293_gender-female_rewardprob-80_session-plusneu.png,j,,0,0,0,0,,,,,,,,,,,,,0,73,73,42,,,,,,,,,,,,,,j,1,0.9033275840047281,,,98,keyboard,2018_Oct_09_1104,pilot_RL,59.952793529799195,
logs/sub-98/stims_session-plusneu.csv,logs/sub-98/trials_phase-learning_session-plusneu.csv,win je niks.,dat je niks wint.,(0 euro gewonnen), ,plusneu,eerste,1,learning,,,,,,64_vs_36,logs/sub-98/anim-neutral_id-1339_gender-female_rewardprob-36_session-plusneu.png,logs/sub-98/anim-neutral_id-1356_gender-female_rewardprob-64_session-plusneu.png,j,,0,0,0,0,,,,,,,,,,,,,0,74,74,84,,,,,,,,,,,,,,j,1,1.2676420460047666,,,98,keyboard,2018_Oct_09_1104,pilot_RL,59.952793529799195,
logs/sub-98/stims_session-plusneu.csv,logs/sub-98/trials_phase-learning_session-plusneu.csv,win je niks.,dat je niks wint.,(0 euro gewonnen), ,plusneu,eerste,1,learning,,,,,,64_vs_36,logs/sub-98/anim-neutral_id-1356_gender-female_rewardprob-64_session-plusneu.png,logs/sub-98/anim-neutral_id-1339_gender-female_rewardprob-36_session-plusneu.png,j,,0,0,0,0,,,,,,,,,,,,,0,75,75,67,,,,,,,,,,,,,,j,1,0.5176701120071812,,,98,keyboard,2018_Oct_09_1104,pilot_RL,59.952793529799195,
logs/sub-98/stims_session-plusneu.csv,logs/sub-98/trials_phase-learning_session-plusneu.csv,win je niks.,dat je niks wint.,(0 euro gewonnen), ,plusneu,eerste,1,learning,,,,,,80_vs_20,logs/sub-98/anim-neutral_id-1290_gender-female_rewardprob-20_session-plusneu.png,logs/sub-98/anim-neutral_id-1293_gender-female_rewardprob-80_session-plusneu.png,j,,0,0,0,0,,,,,,,,,,,,,0,76,76,37,,,,,,,,,,,,,,j,1,0.9510838880087249,,,98,keyboard,2018_Oct_09_1104,pilot_RL,59.952793529799195,
logs/sub-98/stims_session-plusneu.csv,logs/sub-98/trials_phase-learning_session-plusneu.csv,win je niks.,dat je niks wint.,(0 euro gewonnen), ,plusneu,eerste,1,learning,,,,,,64_vs_36,logs/sub-98/anim-neutral_id-1356_gender-female_rewardprob-64_session-plusneu.png,logs/sub-98/anim-neutral_id-1339_gender-female_rewardprob-36_session-plusneu.png,j,,0,0,0,0,,,,,,,,,,,,,0,77,77,72,,,,,,,,,,,,,,f,0,0.9677426059934078,,,98,keyboard,2018_Oct_09_1104,pilot_RL,59.952793529799195,
logs/sub-98/stims_session-plusneu.csv,logs/sub-98/trials_phase-learning_session-plusneu.csv,win je niks.,dat je niks wint.,(0 euro gewonnen), ,plusneu,eerste,1,learning,,,,,,64_vs_36,logs/sub-98/anim-neutral_id-1356_gender-female_rewardprob-64_session-plusneu.png,logs/sub-98/anim-neutral_id-1339_gender-female_rewardprob-36_session-plusneu.png,f,,0,0,0,0,,,,,,,,,,,,,0,78,78,51,,,,,,,,,,,,,,j,0,1.1523540189955384,,,98,keyboard,2018_Oct_09_1104,pilot_RL,59.952793529799195,
logs/sub-98/stims_session-plusneu.csv,logs/sub-98/trials_phase-learning_session-plusneu.csv,win je niks.,dat je niks wint.,(0 euro gewonnen), ,plusneu,eerste,1,learning,,,,,,80_vs_20,logs/sub-98/anim-neutral_id-1290_gender-female_rewardprob-20_session-plusneu.png,logs/sub-98/anim-neutral_id-1293_gender-female_rewardprob-80_session-plusneu.png,j,,0,0,0,0,,,,,,,,,,,,,0,79,79,36,,,,,,,,,,,,,,j,1,0.9034478910034522,,,98,keyboard,2018_Oct_09_1104,pilot_RL,59.952793529799195,
logs/sub-98/stims_session-plusneu.csv,logs/sub-98/trials_phase-learning_session-plusneu.csv,win je niks.,dat je niks wint.,(0 euro gewonnen), ,plusneu,eerste,1,learning,,,,,,80_vs_20,logs/sub-98/anim-neutral_id-1293_gender-female_rewardprob-80_session-plusneu.png,logs/sub-98/anim-neutral_id-1290_gender-female_rewardprob-20_session-plusneu.png,f,,0,0,0,0,,,,,,,,,,,,,0,80,80,18,,,,,,,,,,,,,,f,1,0.7352493879880058,,,98,keyboard,2018_Oct_09_1104,pilot_RL,59.952793529799195,
logs/sub-98/stims_session-plusneu.csv,logs/sub-98/trials_phase-learning_session-plusneu.csv,win je niks.,dat je niks wint.,(0 euro gewonnen), ,plusneu,eerste,1,learning,,,,,,64_vs_36,logs/sub-98/anim-neutral_id-1356_gender-female_rewardprob-64_session-plusneu.png,logs/sub-98/anim-neutral_id-1339_gender-female_rewardprob-36_session-plusneu.png,f,,0,0,0,0,,,,,,,,,,,,,0,81,81,53,,,,,,,,,,,,,,f,1,1.0198706299997866,,,98,keyboard,2018_Oct_09_1104,pilot_RL,59.952793529799195,
logs/sub-98/stims_session-plusneu.csv,logs/sub-98/trials_phase-learning_session-plusneu.csv,win je niks.,dat je niks wint.,(0 euro gewonnen), ,plusneu,eerste,1,learning,,,,,,80_vs_20,logs/sub-98/anim-neutral_id-1290_gender-female_rewardprob-20_session-plusneu.png,logs/sub-98/anim-neutral_id-1293_gender-female_rewardprob-80_session-plusneu.png,j,,0,0,0,0,,,,,,,,,,,,,0,82,82,47,,,,,,,,,,,,,,j,1,0.6024745559989242,,,98,keyboard,2018_Oct_09_1104,pilot_RL,59.952793529799195,
logs/sub-98/stims_session-plusneu.csv,logs/sub-98/trials_phase-learning_session-plusneu.csv,win je niks.,dat je niks wint.,(0 euro gewonnen), ,plusneu,eerste,1,learning,,,,,,64_vs_36,logs/sub-98/anim-neutral_id-1356_gender-female_rewardprob-64_session-plusneu.png,logs/sub-98/anim-neutral_id-1339_gender-female_rewardprob-36_session-plusneu.png,f,,0,0,0,0,,,,,,,,,,,,,0,83,83,54,,,,,,,,,,,,,,f,1,0.6171890699915821,,,98,keyboard,2018_Oct_09_1104,pilot_RL,59.952793529799195,
logs/sub-98/stims_session-plusneu.csv,logs/sub-98/trials_phase-learning_session-plusneu.csv,win je niks.,dat je niks wint.,(0 euro gewonnen), ,plusneu,eerste,1,learning,,,,,,80_vs_20,logs/sub-98/anim-neutral_id-1290_gender-female_rewardprob-20_session-plusneu.png,logs/sub-98/anim-neutral_id-1293_gender-female_rewardprob-80_session-plusneu.png,f,,0,0,0,0,,,,,,,,,,,,,0,84,84,26,,,,,,,,,,,,,,j,0,0.6841557879961329,,,98,keyboard,2018_Oct_09_1104,pilot_RL,59.952793529799195,
logs/sub-98/stims_session-plusneu.csv,logs/sub-98/trials_phase-learning_session-plusneu.csv,win je niks.,dat je niks wint.,(0 euro gewonnen), ,plusneu,eerste,1,learning,,,,,,80_vs_20,logs/sub-98/anim-neutral_id-1293_gender-female_rewardprob-80_session-plusneu.png,logs/sub-98/anim-neutral_id-1290_gender-female_rewardprob-20_session-plusneu.png,j,,0,0,0,0,,,,,,,,,,,,,0,85,85,20,,,,,,,,,,,,,,f,0,0.9859442059969297,,,98,keyboard,2018_Oct_09_1104,pilot_RL,59.952793529799195,
logs/sub-98/stims_session-plusneu.csv,logs/sub-98/trials_phase-learning_session-plusneu.csv,win je niks.,dat je niks wint.,(0 euro gewonnen), ,plusneu,eerste,1,learning,,,,,,64_vs_36,logs/sub-98/anim-neutral_id-1356_gender-female_rewardprob-64_session-plusneu.png,logs/sub-98/anim-neutral_id-1339_gender-female_rewardprob-36_session-plusneu.png,j,,0,0,0,0,,,,,,,,,,,,,0,86,86,73,,,,,,,,,,,,,,f,0,0.8362042799999472,,,98,keyboard,2018_Oct_09_1104,pilot_RL,59.952793529799195,
logs/sub-98/stims_session-plusneu.csv,logs/sub-98/trials_phase-learning_session-plusneu.csv,win je niks.,dat je niks wint.,(0 euro gewonnen), ,plusneu,eerste,1,learning,,,,,,64_vs_36,logs/sub-98/anim-neutral_id-1339_gender-female_rewardprob-36_session-plusneu.png,logs/sub-98/anim-neutral_id-1356_gender-female_rewardprob-64_session-plusneu.png,j,,0,0,0,0,,,,,,,,,,,,,0,87,87,95,,,,,,,,,,,,,,j,1,0.619283510997775,,,98,keyboard,2018_Oct_09_1104,pilot_RL,59.952793529799195,
logs/sub-98/stims_session-plusneu.csv,logs/sub-98/trials_phase-learning_session-plusneu.csv,win je niks.,dat je niks wint.,(0 euro gewonnen), ,plusneu,eerste,1,learning,,,,,,64_vs_36,logs/sub-98/anim-neutral_id-1339_gender-female_rewardprob-36_session-plusneu.png,logs/sub-98/anim-neutral_id-1356_gender-female_rewardprob-64_session-plusneu.png,f,,0,0,0,0,,,,,,,,,,,,,0,88,88,80,,,,,,,,,,,,,,j,0,0.650163779995637,,,98,keyboard,2018_Oct_09_1104,pilot_RL,59.952793529799195,
logs/sub-98/stims_session-plusneu.csv,logs/sub-98/trials_phase-learning_session-plusneu.csv,win je niks.,dat je niks wint.,(0 euro gewonnen), ,plusneu,eerste,1,learning,,,,,,64_vs_36,logs/sub-98/anim-neutral_id-1339_gender-female_rewardprob-36_session-plusneu.png,logs/sub-98/anim-neutral_id-1356_gender-female_rewardprob-64_session-plusneu.png,f,,0,0,0,0,,,,,,,,,,,,,0,89,89,77,,,,,,,,,,,,,,j,0,0.9185751439945307,,,98,keyboard,2018_Oct_09_1104,pilot_RL,59.952793529799195,
logs/sub-98/stims_session-plusneu.csv,logs/sub-98/trials_phase-learning_session-plusneu.csv,win je niks.,dat je niks wint.,(0 euro gewonnen), ,plusneu,eerste,1,learning,,,,,,64_vs_36,logs/sub-98/anim-neutral_id-1356_gender-female_rewardprob-64_session-plusneu.png,logs/sub-98/anim-neutral_id-1339_gender-female_rewardprob-36_session-plusneu.png,f,,0,0,0,0,,,,,,,,,,,,,0,90,90,60,,,,,,,,,,,,,,j,0,1.3662367070064647,,,98,keyboard,2018_Oct_09_1104,pilot_RL,59.952793529799195,
logs/sub-98/stims_session-plusneu.csv,logs/sub-98/trials_phase-learning_session-plusneu.csv,win je niks.,dat je niks wint.,(0 euro gewonnen), ,plusneu,eerste,1,learning,,,,,,80_vs_20,logs/sub-98/anim-neutral_id-1290_gender-female_rewardprob-20_session-plusneu.png,logs/sub-98/anim-neutral_id-1293_gender-female_rewardprob-80_session-plusneu.png,j,,0,0,0,0,,,,,,,,,,,,,0,91,91,43,,,,,,,,,,,,,,j,1,0.8694706039968878,,,98,keyboard,2018_Oct_09_1104,pilot_RL,59.952793529799195,
logs/sub-98/stims_session-plusneu.csv,logs/sub-98/trials_phase-learning_session-plusneu.csv,win je niks.,dat je niks wint.,(0 euro gewonnen), ,plusneu,eerste,1,learning,,,,,,80_vs_20,logs/sub-98/anim-neutral_id-1290_gender-female_rewardprob-20_session-plusneu.png,logs/sub-98/anim-neutral_id-1293_gender-female_rewardprob-80_session-plusneu.png,j,,0,0,0,0,,,,,,,,,,,,,0,92,92,35,,,,,,,,,,,,,,j,1,1.1835598619945813,,,98,keyboard,2018_Oct_09_1104,pilot_RL,59.952793529799195,
logs/sub-98/stims_session-plusneu.csv,logs/sub-98/trials_phase-learning_session-plusneu.csv,win je niks.,dat je niks wint.,(0 euro gewonnen), ,plusneu,eerste,1,learning,,,,,,64_vs_36,logs/sub-98/anim-neutral_id-1339_gender-female_rewardprob-36_session-plusneu.png,logs/sub-98/anim-neutral_id-1356_gender-female_rewardprob-64_session-plusneu.png,j,,0,0,0,0,,,,,,,,,,,,,0,93,93,99,,,,,,,,,,,,,,f,0,0.7678986649989383,,,98,keyboard,2018_Oct_09_1104,pilot_RL,59.952793529799195,
logs/sub-98/stims_session-plusneu.csv,logs/sub-98/trials_phase-learning_session-plusneu.csv,win je niks.,dat je niks wint.,(0 euro gewonnen), ,plusneu,eerste,1,learning,,,,,,80_vs_20,logs/sub-98/anim-neutral_id-1293_gender-female_rewardprob-80_session-plusneu.png,logs/sub-98/anim-neutral_id-1290_gender-female_rewardprob-20_session-plusneu.png,f,,0,0,0,0,,,,,,,,,,,,,0,94,94,17,,,,,,,,,,,,,,f,1,1.0352261649968568,,,98,keyboard,2018_Oct_09_1104,pilot_RL,59.952793529799195,
logs/sub-98/stims_session-plusneu.csv,logs/sub-98/trials_phase-learning_session-plusneu.csv,win je niks.,dat je niks wint.,(0 euro gewonnen), ,plusneu,eerste,1,learning,,,,,,80_vs_20,logs/sub-98/anim-neutral_id-1290_gender-female_rewardprob-20_session-plusneu.png,logs/sub-98/anim-neutral_id-1293_gender-female_rewardprob-80_session-plusneu.png,f,,0,0,0,0,,,,,,,,,,,,,0,95,95,27,,,,,,,,,,,,,,j,0,1.1337916990014492,,,98,keyboard,2018_Oct_09_1104,pilot_RL,59.952793529799195,
logs/sub-98/stims_session-plusneu.csv,logs/sub-98/trials_phase-learning_session-plusneu.csv,win je niks.,dat je niks wint.,(0 euro gewonnen), ,plusneu,eerste,1,learning,,,,,,64_vs_36,logs/sub-98/anim-neutral_id-1339_gender-female_rewardprob-36_session-plusneu.png,logs/sub-98/anim-neutral_id-1356_gender-female_rewardprob-64_session-plusneu.png,j,,0,0,0,0,,,,,,,,,,,,,0,96,96,90,,,,,,,,,,,,,,f,0,0.6866545079974458,,,98,keyboard,2018_Oct_09_1104,pilot_RL,59.952793529799195,
logs/sub-98/stims_session-plusneu.csv,logs/sub-98/trials_phase-learning_session-plusneu.csv,win je niks.,dat je niks wint.,(0 euro gewonnen), ,plusneu,eerste,1,learning,,,,,,80_vs_20,logs/sub-98/anim-neutral_id-1293_gender-female_rewardprob-80_session-plusneu.png,logs/sub-98/anim-neutral_id-1290_gender-female_rewardprob-20_session-plusneu.png,f,,0,0,0,0,,,,,,,,,,,,,0,97,97,0,,,,,,,,,,,,,,f,1,1.1171362029999727,,,98,keyboard,2018_Oct_09_1104,pilot_RL,59.952793529799195,
logs/sub-98/stims_session-plusneu.csv,logs/sub-98/trials_phase-learning_session-plusneu.csv,win je niks.,dat je niks wint.,(0 euro gewonnen), ,plusneu,eerste,1,learning,,,,,,80_vs_20,logs/sub-98/anim-neutral_id-1290_gender-female_rewardprob-20_session-plusneu.png,logs/sub-98/anim-neutral_id-1293_gender-female_rewardprob-80_session-plusneu.png,j,,0,0,0,0,,,,,,,,,,,,,0,98,98,34,,,,,,,,,,,,,,j,1,0.9515136150002945,,,98,keyboard,2018_Oct_09_1104,pilot_RL,59.952793529799195,
logs/sub-98/stims_session-plusneu.csv,logs/sub-98/trials_phase-learning_session-plusneu.csv,win je niks.,dat je niks wint.,(0 euro gewonnen), ,plusneu,eerste,1,learning,,,,,,80_vs_20,logs/sub-98/anim-neutral_id-1290_gender-female_rewardprob-20_session-plusneu.png,logs/sub-98/anim-neutral_id-1293_gender-female_rewardprob-80_session-plusneu.png,j,,0,0,0,0,,,,,,,,,,,,,0,99,99,40,,,,,,,,,,,,,,j,1,0.950680089998059,,,98,keyboard,2018_Oct_09_1104,pilot_RL,59.952793529799195,
logs/sub-98/stims_session-plusneu.csv,logs/sub-98/trials_phase-learning_session-plusneu.csv,win je niks.,dat je niks wint.,(0 euro gewonnen), ,plusneu,eerste,1,rating,trustworthiness,Hoe betrouwbaar vind jij dit gezicht?,None,logs/sub-98/anim-neutral_id-1339_gender-female_rewardprob-36_session-plusneu.png,80,,,,,,0,0,0,0,,,,,,,,,,,,,,,,,0,0,0,3,0,0,0,2,,,,,,,,,2,4.936,98,keyboard,2018_Oct_09_1104,pilot_RL,59.952793529799195,
logs/sub-98/stims_session-plusneu.csv,logs/sub-98/trials_phase-learning_session-plusneu.csv,win je niks.,dat je niks wint.,(0 euro gewonnen), ,plusneu,eerste,1,rating,trustworthiness,Hoe betrouwbaar vind jij dit gezicht?,None,logs/sub-98/anim-neutral_id-1293_gender-female_rewardprob-80_session-plusneu.png,80,,,,,,0,0,0,0,,,,,,,,,,,,,,,,,0,0,0,3,0,1,1,0,,,,,,,,,-3,3.004,98,keyboard,2018_Oct_09_1104,pilot_RL,59.952793529799195,
logs/sub-98/stims_session-plusneu.csv,logs/sub-98/trials_phase-learning_session-plusneu.csv,win je niks.,dat je niks wint.,(0 euro gewonnen), ,plusneu,eerste,1,rating,trustworthiness,Hoe betrouwbaar vind jij dit gezicht?,None,logs/sub-98/anim-neutral_id-1356_gender-female_rewardprob-64_session-plusneu.png,80,,,,,,0,0,0,0,,,,,,,,,,,,,,,,,0,0,0,3,0,2,2,1,,,,,,,,,1,2.12,98,keyboard,2018_Oct_09_1104,pilot_RL,59.952793529799195,
logs/sub-98/stims_session-plusneu.csv,logs/sub-98/trials_phase-learning_session-plusneu.csv,win je niks.,dat je niks wint.,(0 euro gewonnen), ,plusneu,eerste,1,rating,trustworthiness,Hoe betrouwbaar vind jij dit gezicht?,None,logs/sub-98/anim-neutral_id-1290_gender-female_rewardprob-20_session-plusneu.png,80,,,,,,0,0,0,0,,,,,,,,,,,,,,,,,0,0,0,3,0,3,3,3,,,,,,,,,-1,1.804,98,keyboard,2018_Oct_09_1104,pilot_RL,59.952793529799195,
logs/sub-98/stims_session-plusneu.csv,logs/sub-98/trials_phase-learning_session-plusneu.csv,win je niks.,dat je niks wint.,(0 euro gewonnen), ,plusneu,eerste,1,rating,trustworthiness,Hoe betrouwbaar vind jij dit gezicht?,None,,,,,,,,0,0,0,0,,,,,,,,,,,,,,,,,0,0,0,3,,,,,,,,,,,,,,,98,keyboard,2018_Oct_09_1104,pilot_RL,59.952793529799195,
logs/sub-98/stims_session-plusneu.csv,logs/sub-98/trials_phase-learning_session-plusneu.csv,win je niks.,dat je niks wint.,(0 euro gewonnen), ,plusneu,eerste,1,rating,arousal,Hoe 'emotioneel opwindend' vind jij dit gezicht?,None,logs/sub-98/anim-neutral_id-1356_gender-female_rewardprob-64_session-plusneu.png,80,,,,,,0,0,0,0,,,,,,,,,,,,,,,,,0,1,1,1,0,0,0,1,,,,,,,,,0,2.47,98,keyboard,2018_Oct_09_1104,pilot_RL,59.952793529799195,
logs/sub-98/stims_session-plusneu.csv,logs/sub-98/trials_phase-learning_session-plusneu.csv,win je niks.,dat je niks wint.,(0 euro gewonnen), ,plusneu,eerste,1,rating,arousal,Hoe 'emotioneel opwindend' vind jij dit gezicht?,None,logs/sub-98/anim-neutral_id-1293_gender-female_rewardprob-80_session-plusneu.png,80,,,,,,0,0,0,0,,,,,,,,,,,,,,,,,0,1,1,1,0,1,1,0,,,,,,,,,3,3.753,98,keyboard,2018_Oct_09_1104,pilot_RL,59.952793529799195,
logs/sub-98/stims_session-plusneu.csv,logs/sub-98/trials_phase-learning_session-plusneu.csv,win je niks.,dat je niks wint.,(0 euro gewonnen), ,plusneu,eerste,1,rating,arousal,Hoe 'emotioneel opwindend' vind jij dit gezicht?,None,logs/sub-98/anim-neutral_id-1290_gender-female_rewardprob-20_session-plusneu.png,80,,,,,,0,0,0,0,,,,,,,,,,,,,,,,,0,1,1,1,0,2,2,3,,,,,,,,,4,4.004,98,keyboard,2018_Oct_09_1104,pilot_RL,59.952793529799195,
logs/sub-98/stims_session-plusneu.csv,logs/sub-98/trials_phase-learning_session-plusneu.csv,win je niks.,dat je niks wint.,(0 euro gewonnen), ,plusneu,eerste,1,rating,arousal,Hoe 'emotioneel opwindend' vind jij dit gezicht?,None,logs/sub-98/anim-neutral_id-1339_gender-female_rewardprob-36_session-plusneu.png,80,,,,,,0,0,0,0,,,,,,,,,,,,,,,,,0,1,1,1,0,3,3,2,,,,,,,,,1,2.12,98,keyboard,2018_Oct_09_1104,pilot_RL,59.952793529799195,
logs/sub-98/stims_session-plusneu.csv,logs/sub-98/trials_phase-learning_session-plusneu.csv,win je niks.,dat je niks wint.,(0 euro gewonnen), ,plusneu,eerste,1,rating,arousal,Hoe 'emotioneel opwindend' vind jij dit gezicht?,None,,,,,,,,0,0,0,0,,,,,,,,,,,,,,,,,0,1,1,1,,,,,,,,,,,,,,,98,keyboard,2018_Oct_09_1104,pilot_RL,59.952793529799195,
logs/sub-98/stims_session-plusneu.csv,logs/sub-98/trials_phase-learning_session-plusneu.csv,win je niks.,dat je niks wint.,(0 euro gewonnen), ,plusneu,eerste,1,rating,attractiveness,Hoe aantrekkelijk vind jij dit gezicht?,None,logs/sub-98/anim-neutral_id-1356_gender-female_rewardprob-64_session-plusneu.png,80,,,,,,0,0,0,0,,,,,,,,,,,,,,,,,0,2,2,2,0,0,0,1,,,,,,,,,-1,2.551,98,keyboard,2018_Oct_09_1104,pilot_RL,59.952793529799195,
logs/sub-98/stims_session-plusneu.csv,logs/sub-98/trials_phase-learning_session-plusneu.csv,win je niks.,dat je niks wint.,(0 euro gewonnen), ,plusneu,eerste,1,rating,attractiveness,Hoe aantrekkelijk vind jij dit gezicht?,None,logs/sub-98/anim-neutral_id-1293_gender-female_rewardprob-80_session-plusneu.png,80,,,,,,0,0,0,0,,,,,,,,,,,,,,,,,0,2,2,2,0,1,1,0,,,,,,,,,-3,2.304,98,keyboard,2018_Oct_09_1104,pilot_RL,59.952793529799195,
logs/sub-98/stims_session-plusneu.csv,logs/sub-98/trials_phase-learning_session-plusneu.csv,win je niks.,dat je niks wint.,(0 euro gewonnen), ,plusneu,eerste,1,rating,attractiveness,Hoe aantrekkelijk vind jij dit gezicht?,None,logs/sub-98/anim-neutral_id-1339_gender-female_rewardprob-36_session-plusneu.png,80,,,,,,0,0,0,0,,,,,,,,,,,,,,,,,0,2,2,2,0,2,2,2,,,,,,,,,-1,1.587,98,keyboard,2018_Oct_09_1104,pilot_RL,59.952793529799195,
logs/sub-98/stims_session-plusneu.csv,logs/sub-98/trials_phase-learning_session-plusneu.csv,win je niks.,dat je niks wint.,(0 euro gewonnen), ,plusneu,eerste,1,rating,attractiveness,Hoe aantrekkelijk vind jij dit gezicht?,None,logs/sub-98/anim-neutral_id-1290_gender-female_rewardprob-20_session-plusneu.png,80,,,,,,0,0,0,0,,,,,,,,,,,,,,,,,0,2,2,2,0,3,3,3,,,,,,,,,2,2.468,98,keyboard,2018_Oct_09_1104,pilot_RL,59.952793529799195,
logs/sub-98/stims_session-plusneu.csv,logs/sub-98/trials_phase-learning_session-plusneu.csv,win je niks.,dat je niks wint.,(0 euro gewonnen), ,plusneu,eerste,1,rating,attractiveness,Hoe aantrekkelijk vind jij dit gezicht?,None,,,,,,,,0,0,0,0,,,,,,,,,,,,,,,,,0,2,2,2,,,,,,,,,,,,,,,98,keyboard,2018_Oct_09_1104,pilot_RL,59.952793529799195,
logs/sub-98/stims_session-plusneu.csv,logs/sub-98/trials_phase-learning_session-plusneu.csv,win je niks.,dat je niks wint.,(0 euro gewonnen), ,plusneu,eerste,1,rating,valence,Hoe prettig vind jij dit gezicht?,None,logs/sub-98/anim-neutral_id-1290_gender-female_rewardprob-20_session-plusneu.png,80,,,,,,0,0,0,0,,,,,,,,,,,,,,,,,0,3,3,0,0,0,0,3,,,,,,,,,0,1.903,98,keyboard,2018_Oct_09_1104,pilot_RL,59.952793529799195,
logs/sub-98/stims_session-plusneu.csv,logs/sub-98/trials_phase-learning_session-plusneu.csv,win je niks.,dat je niks wint.,(0 euro gewonnen), ,plusneu,eerste,1,rating,valence,Hoe prettig vind jij dit gezicht?,None,logs/sub-98/anim-neutral_id-1356_gender-female_rewardprob-64_session-plusneu.png,80,,,,,,0,0,0,0,,,,,,,,,,,,,,,,,0,3,3,0,0,1,1,1,,,,,,,,,1,5.037,98,keyboard,2018_Oct_09_1104,pilot_RL,59.952793529799195,
logs/sub-98/stims_session-plusneu.csv,logs/sub-98/trials_phase-learning_session-plusneu.csv,win je niks.,dat je niks wint.,(0 euro gewonnen), ,plusneu,eerste,1,rating,valence,Hoe prettig vind jij dit gezicht?,None,logs/sub-98/anim-neutral_id-1339_gender-female_rewardprob-36_session-plusneu.png,80,,,,,,0,0,0,0,,,,,,,,,,,,,,,,,0,3,3,0,0,2,2,2,,,,,,,,,1,1.821,98,keyboard,2018_Oct_09_1104,pilot_RL,59.952793529799195,
logs/sub-98/stims_session-plusneu.csv,logs/sub-98/trials_phase-learning_session-plusneu.csv,win je niks.,dat je niks wint.,(0 euro gewonnen), ,plusneu,eerste,1,rating,valence,Hoe prettig vind jij dit gezicht?,None,logs/sub-98/anim-neutral_id-1293_gender-female_rewardprob-80_session-plusneu.png,80,,,,,,0,0,0,0,,,,,,,,,,,,,,,,,0,3,3,0,0,3,3,0,,,,,,,,,-3,2.137,98,keyboard,2018_Oct_09_1104,pilot_RL,59.952793529799195,
logs/sub-98/stims_session-plusneu.csv,logs/sub-98/trials_phase-learning_session-plusneu.csv,win je niks.,dat je niks wint.,(0 euro gewonnen), ,plusneu,eerste,1,rating,valence,Hoe prettig vind jij dit gezicht?,None,,,,,,,,0,0,0,0,,,,,,,,,,,,,,,,,0,3,3,0,,,,,,,,,,,,,,,98,keyboard,2018_Oct_09_1104,pilot_RL,59.952793529799195,
logs/sub-98/stims_session-plusneu.csv,logs/sub-98/trials_phase-learning_session-plusneu.csv,win je niks.,dat je niks wint.,(0 euro gewonnen), ,plusneu,eerste,1,rating,dominance,Hoe dominant vind jij dit gezicht?,None,logs/sub-98/anim-neutral_id-1290_gender-female_rewardprob-20_session-plusneu.png,80,,,,,,0,0,0,0,,,,,,,,,,,,,,,,,0,4,4,4,0,0,0,3,,,,,,,,,2,1.586,98,keyboard,2018_Oct_09_1104,pilot_RL,59.952793529799195,
logs/sub-98/stims_session-plusneu.csv,logs/sub-98/trials_phase-learning_session-plusneu.csv,win je niks.,dat je niks wint.,(0 euro gewonnen), ,plusneu,eerste,1,rating,dominance,Hoe dominant vind jij dit gezicht?,None,logs/sub-98/anim-neutral_id-1339_gender-female_rewardprob-36_session-plusneu.png,80,,,,,,0,0,0,0,,,,,,,,,,,,,,,,,0,4,4,4,0,1,1,2,,,,,,,,,-2,1.62,98,keyboard,2018_Oct_09_1104,pilot_RL,59.952793529799195,
logs/sub-98/stims_session-plusneu.csv,logs/sub-98/trials_phase-learning_session-plusneu.csv,win je niks.,dat je niks wint.,(0 euro gewonnen), ,plusneu,eerste,1,rating,dominance,Hoe dominant vind jij dit gezicht?,None,logs/sub-98/anim-neutral_id-1293_gender-female_rewardprob-80_session-plusneu.png,80,,,,,,0,0,0,0,,,,,,,,,,,,,,,,,0,4,4,4,0,2,2,0,,,,,,,,,1,1.436,98,keyboard,2018_Oct_09_1104,pilot_RL,59.952793529799195,
logs/sub-98/stims_session-plusneu.csv,logs/sub-98/trials_phase-learning_session-plusneu.csv,win je niks.,dat je niks wint.,(0 euro gewonnen), ,plusneu,eerste,1,rating,dominance,Hoe dominant vind jij dit gezicht?,None,logs/sub-98/anim-neutral_id-1356_gender-female_rewardprob-64_session-plusneu.png,80,,,,,,0,0,0,0,,,,,,,,,,,,,,,,,0,4,4,4,0,3,3,1,,,,,,,,,-1,2.27,98,keyboard,2018_Oct_09_1104,pilot_RL,59.952793529799195,
logs/sub-98/stims_session-plusneu.csv,logs/sub-98/trials_phase-learning_session-plusneu.csv,win je niks.,dat je niks wint.,(0 euro gewonnen), ,plusneu,eerste,1,rating,dominance,Hoe dominant vind jij dit gezicht?,None,,,,,,,,0,0,0,0,,,,,,,,,,,,,,,,,0,4,4,4,,,,,,,,,,,,,,,98,keyboard,2018_Oct_09_1104,pilot_RL,59.952793529799195,
logs/sub-98/stims_session-plusneu.csv,logs/sub-98/trials_phase-learning_session-plusneu.csv,win je niks.,dat je niks wint.,(0 euro gewonnen), ,plusneu,eerste,1,,,,,,,,,,,,0,0,0,0,,,,,,,,,,,,,,,,,,,,,,,,,,,,,,,,,,,98,keyboard,2018_Oct_09_1104,pilot_RL,59.952793529799195,
logs/sub-98/stims_session-plusmin.csv,logs/sub-98/trials_phase-learning_session-plusmin.csv,VERLIES je %.1f euro.,"gestraft wordt, doordat je 0.1 euro verliest.",(0.1 euro verloren),"Let op: in de eerste sessie won je niks als je keus fout was, maar in deze sessie VERLIES je 0.1 euro als je het fout hebt!",plusmin,tweede,0,rating,arousal,Hoe 'emotioneel opwindend' vind jij dit gezicht?,None,logs/sub-98/anim-neutral_id-1297_gender-female_rewardprob-80_session-plusmin.png,64,,,,,,0,1,1,1,0,0,0,1,0,0,0,0,,,,,,,,,,,,,,,,,2,7.503,,,,,,,,,98,keyboard,2018_Oct_09_1104,pilot_RL,59.952793529799195,
logs/sub-98/stims_session-plusmin.csv,logs/sub-98/trials_phase-learning_session-plusmin.csv,VERLIES je %.1f euro.,"gestraft wordt, doordat je 0.1 euro verliest.",(0.1 euro verloren),"Let op: in de eerste sessie won je niks als je keus fout was, maar in deze sessie VERLIES je 0.1 euro als je het fout hebt!",plusmin,tweede,0,rating,arousal,Hoe 'emotioneel opwindend' vind jij dit gezicht?,None,logs/sub-98/anim-neutral_id-1289_gender-female_rewardprob-64_session-plusmin.png,64,,,,,,0,1,1,1,0,0,0,1,0,1,1,1,,,,,,,,,,,,,,,,,1,36.419,,,,,,,,,98,keyboard,2018_Oct_09_1104,pilot_RL,59.952793529799195,
logs/sub-98/stims_session-plusmin.csv,logs/sub-98/trials_phase-learning_session-plusmin.csv,VERLIES je %.1f euro.,"gestraft wordt, doordat je 0.1 euro verliest.",(0.1 euro verloren),"Let op: in de eerste sessie won je niks als je keus fout was, maar in deze sessie VERLIES je 0.1 euro als je het fout hebt!",plusmin,tweede,0,rating,arousal,Hoe 'emotioneel opwindend' vind jij dit gezicht?,None,logs/sub-98/anim-neutral_id-1264_gender-female_rewardprob-20_session-plusmin.png,64,,,,,,0,1,1,1,0,0,0,1,0,2,2,3,,,,,,,,,,,,,,,,,1,3.804,,,,,,,,,98,keyboard,2018_Oct_09_1104,pilot_RL,59.952793529799195,
logs/sub-98/stims_session-plusmin.csv,logs/sub-98/trials_phase-learning_session-plusmin.csv,VERLIES je %.1f euro.,"gestraft wordt, doordat je 0.1 euro verliest.",(0.1 euro verloren),"Let op: in de eerste sessie won je niks als je keus fout was, maar in deze sessie VERLIES je 0.1 euro als je het fout hebt!",plusmin,tweede,0,rating,arousal,Hoe 'emotioneel opwindend' vind jij dit gezicht?,None,logs/sub-98/anim-neutral_id-1260_gender-female_rewardprob-36_session-plusmin.png,64,,,,,,0,1,1,1,0,0,0,1,0,3,3,2,,,,,,,,,,,,,,,,,1,3.353,,,,,,,,,98,keyboard,2018_Oct_09_1104,pilot_RL,59.952793529799195,
logs/sub-98/stims_session-plusmin.csv,logs/sub-98/trials_phase-learning_session-plusmin.csv,VERLIES je %.1f euro.,"gestraft wordt, doordat je 0.1 euro verliest.",(0.1 euro verloren),"Let op: in de eerste sessie won je niks als je keus fout was, maar in deze sessie VERLIES je 0.1 euro als je het fout hebt!",plusmin,tweede,0,rating,dominance,Hoe dominant vind jij dit gezicht?,None,logs/sub-98/anim-neutral_id-1289_gender-female_rewardprob-64_session-plusmin.png,64,,,,,,0,1,1,1,0,1,1,4,0,0,0,1,,,,,,,,,,,,,,,,,-1,4.519,,,,,,,,,98,keyboard,2018_Oct_09_1104,pilot_RL,59.952793529799195,
logs/sub-98/stims_session-plusmin.csv,logs/sub-98/trials_phase-learning_session-plusmin.csv,VERLIES je %.1f euro.,"gestraft wordt, doordat je 0.1 euro verliest.",(0.1 euro verloren),"Let op: in de eerste sessie won je niks als je keus fout was, maar in deze sessie VERLIES je 0.1 euro als je het fout hebt!",plusmin,tweede,0,rating,dominance,Hoe dominant vind jij dit gezicht?,None,logs/sub-98/anim-neutral_id-1297_gender-female_rewardprob-80_session-plusmin.png,64,,,,,,0,1,1,1,0,1,1,4,0,1,1,0,,,,,,,,,,,,,,,,,2,1.551,,,,,,,,,98,keyboard,2018_Oct_09_1104,pilot_RL,59.952793529799195,
logs/sub-98/stims_session-plusmin.csv,logs/sub-98/trials_phase-learning_session-plusmin.csv,VERLIES je %.1f euro.,"gestraft wordt, doordat je 0.1 euro verliest.",(0.1 euro verloren),"Let op: in de eerste sessie won je niks als je keus fout was, maar in deze sessie VERLIES je 0.1 euro als je het fout hebt!",plusmin,tweede,0,rating,dominance,Hoe dominant vind jij dit gezicht?,None,logs/sub-98/anim-neutral_id-1260_gender-female_rewardprob-36_session-plusmin.png,64,,,,,,0,1,1,1,0,1,1,4,0,2,2,2,,,,,,,,,,,,,,,,,-1,1.553,,,,,,,,,98,keyboard,2018_Oct_09_1104,pilot_RL,59.952793529799195,
logs/sub-98/stims_session-plusmin.csv,logs/sub-98/trials_phase-learning_session-plusmin.csv,VERLIES je %.1f euro.,"gestraft wordt, doordat je 0.1 euro verliest.",(0.1 euro verloren),"Let op: in de eerste sessie won je niks als je keus fout was, maar in deze sessie VERLIES je 0.1 euro als je het fout hebt!",plusmin,tweede,0,rating,dominance,Hoe dominant vind jij dit gezicht?,None,logs/sub-98/anim-neutral_id-1264_gender-female_rewardprob-20_session-plusmin.png,64,,,,,,0,1,1,1,0,1,1,4,0,3,3,3,,,,,,,,,,,,,,,,,-2,4.203,,,,,,,,,98,keyboard,2018_Oct_09_1104,pilot_RL,59.952793529799195,
logs/sub-98/stims_session-plusmin.csv,logs/sub-98/trials_phase-learning_session-plusmin.csv,VERLIES je %.1f euro.,"gestraft wordt, doordat je 0.1 euro verliest.",(0.1 euro verloren),"Let op: in de eerste sessie won je niks als je keus fout was, maar in deze sessie VERLIES je 0.1 euro als je het fout hebt!",plusmin,tweede,0,rating,trustworthiness,Hoe betrouwbaar vind jij dit gezicht?,None,logs/sub-98/anim-neutral_id-1264_gender-female_rewardprob-20_session-plusmin.png,64,,,,,,0,1,1,1,0,2,2,3,0,0,0,3,,,,,,,,,,,,,,,,,1,2.737,,,,,,,,,98,keyboard,2018_Oct_09_1104,pilot_RL,59.952793529799195,
logs/sub-98/stims_session-plusmin.csv,logs/sub-98/trials_phase-learning_session-plusmin.csv,VERLIES je %.1f euro.,"gestraft wordt, doordat je 0.1 euro verliest.",(0.1 euro verloren),"Let op: in de eerste sessie won je niks als je keus fout was, maar in deze sessie VERLIES je 0.1 euro als je het fout hebt!",plusmin,tweede,0,rating,trustworthiness,Hoe betrouwbaar vind jij dit gezicht?,None,logs/sub-98/anim-neutral_id-1289_gender-female_rewardprob-64_session-plusmin.png,64,,,,,,0,1,1,1,0,2,2,3,0,1,1,1,,,,,,,,,,,,,,,,,2,1.67,,,,,,,,,98,keyboard,2018_Oct_09_1104,pilot_RL,59.952793529799195,
logs/sub-98/stims_session-plusmin.csv,logs/sub-98/trials_phase-learning_session-plusmin.csv,VERLIES je %.1f euro.,"gestraft wordt, doordat je 0.1 euro verliest.",(0.1 euro verloren),"Let op: in de eerste sessie won je niks als je keus fout was, maar in deze sessie VERLIES je 0.1 euro als je het fout hebt!",plusmin,tweede,0,rating,trustworthiness,Hoe betrouwbaar vind jij dit gezicht?,None,logs/sub-98/anim-neutral_id-1297_gender-female_rewardprob-80_session-plusmin.png,64,,,,,,0,1,1,1,0,2,2,3,0,2,2,0,,,,,,,,,,,,,,,,,-2,2.454,,,,,,,,,98,keyboard,2018_Oct_09_1104,pilot_RL,59.952793529799195,
logs/sub-98/stims_session-plusmin.csv,logs/sub-98/trials_phase-learning_session-plusmin.csv,VERLIES je %.1f euro.,"gestraft wordt, doordat je 0.1 euro verliest.",(0.1 euro verloren),"Let op: in de eerste sessie won je niks als je keus fout was, maar in deze sessie VERLIES je 0.1 euro als je het fout hebt!",plusmin,tweede,0,rating,trustworthiness,Hoe betrouwbaar vind jij dit gezicht?,None,logs/sub-98/anim-neutral_id-1260_gender-female_rewardprob-36_session-plusmin.png,64,,,,,,0,1,1,1,0,2,2,3,0,3,3,2,,,,,,,,,,,,,,,,,0,1.584,,,,,,,,,98,keyboard,2018_Oct_09_1104,pilot_RL,59.952793529799195,
logs/sub-98/stims_session-plusmin.csv,logs/sub-98/trials_phase-learning_session-plusmin.csv,VERLIES je %.1f euro.,"gestraft wordt, doordat je 0.1 euro verliest.",(0.1 euro verloren),"Let op: in de eerste sessie won je niks als je keus fout was, maar in deze sessie VERLIES je 0.1 euro als je het fout hebt!",plusmin,tweede,0,rating,valence,Hoe prettig vind jij dit gezicht?,None,logs/sub-98/anim-neutral_id-1297_gender-female_rewardprob-80_session-plusmin.png,64,,,,,,0,1,1,1,0,3,3,0,0,0,0,0,,,,,,,,,,,,,,,,,-3,1.919,,,,,,,,,98,keyboard,2018_Oct_09_1104,pilot_RL,59.952793529799195,
logs/sub-98/stims_session-plusmin.csv,logs/sub-98/trials_phase-learning_session-plusmin.csv,VERLIES je %.1f euro.,"gestraft wordt, doordat je 0.1 euro verliest.",(0.1 euro verloren),"Let op: in de eerste sessie won je niks als je keus fout was, maar in deze sessie VERLIES je 0.1 euro als je het fout hebt!",plusmin,tweede,0,rating,valence,Hoe prettig vind jij dit gezicht?,None,logs/sub-98/anim-neutral_id-1260_gender-female_rewardprob-36_session-plusmin.png,64,,,,,,0,1,1,1,0,3,3,0,0,1,1,2,,,,,,,,,,,,,,,,,2,1.804,,,,,,,,,98,keyboard,2018_Oct_09_1104,pilot_RL,59.952793529799195,
logs/sub-98/stims_session-plusmin.csv,logs/sub-98/trials_phase-learning_session-plusmin.csv,VERLIES je %.1f euro.,"gestraft wordt, doordat je 0.1 euro verliest.",(0.1 euro verloren),"Let op: in de eerste sessie won je niks als je keus fout was, maar in deze sessie VERLIES je 0.1 euro als je het fout hebt!",plusmin,tweede,0,rating,valence,Hoe prettig vind jij dit gezicht?,None,logs/sub-98/anim-neutral_id-1289_gender-female_rewardprob-64_session-plusmin.png,64,,,,,,0,1,1,1,0,3,3,0,0,2,2,1,,,,,,,,,,,,,,,,,2,1.703,,,,,,,,,98,keyboard,2018_Oct_09_1104,pilot_RL,59.952793529799195,
logs/sub-98/stims_session-plusmin.csv,logs/sub-98/trials_phase-learning_session-plusmin.csv,VERLIES je %.1f euro.,"gestraft wordt, doordat je 0.1 euro verliest.",(0.1 euro verloren),"Let op: in de eerste sessie won je niks als je keus fout was, maar in deze sessie VERLIES je 0.1 euro als je het fout hebt!",plusmin,tweede,0,rating,valence,Hoe prettig vind jij dit gezicht?,None,logs/sub-98/anim-neutral_id-1264_gender-female_rewardprob-20_session-plusmin.png,64,,,,,,0,1,1,1,0,3,3,0,0,3,3,3,,,,,,,,,,,,,,,,,2,3.17,,,,,,,,,98,keyboard,2018_Oct_09_1104,pilot_RL,59.952793529799195,
logs/sub-98/stims_session-plusmin.csv,logs/sub-98/trials_phase-learning_session-plusmin.csv,VERLIES je %.1f euro.,"gestraft wordt, doordat je 0.1 euro verliest.",(0.1 euro verloren),"Let op: in de eerste sessie won je niks als je keus fout was, maar in deze sessie VERLIES je 0.1 euro als je het fout hebt!",plusmin,tweede,0,rating,attractiveness,Hoe aantrekkelijk vind jij dit gezicht?,None,logs/sub-98/anim-neutral_id-1297_gender-female_rewardprob-80_session-plusmin.png,64,,,,,,0,1,1,1,0,4,4,2,0,0,0,0,,,,,,,,,,,,,,,,,-1,6.802,,,,,,,,,98,keyboard,2018_Oct_09_1104,pilot_RL,59.952793529799195,
logs/sub-98/stims_session-plusmin.csv,logs/sub-98/trials_phase-learning_session-plusmin.csv,VERLIES je %.1f euro.,"gestraft wordt, doordat je 0.1 euro verliest.",(0.1 euro verloren),"Let op: in de eerste sessie won je niks als je keus fout was, maar in deze sessie VERLIES je 0.1 euro als je het fout hebt!",plusmin,tweede,0,rating,attractiveness,Hoe aantrekkelijk vind jij dit gezicht?,None,logs/sub-98/anim-neutral_id-1264_gender-female_rewardprob-20_session-plusmin.png,64,,,,,,0,1,1,1,0,4,4,2,0,1,1,3,,,,,,,,,,,,,,,,,-1,4.987,,,,,,,,,98,keyboard,2018_Oct_09_1104,pilot_RL,59.952793529799195,
logs/sub-98/stims_session-plusmin.csv,logs/sub-98/trials_phase-learning_session-plusmin.csv,VERLIES je %.1f euro.,"gestraft wordt, doordat je 0.1 euro verliest.",(0.1 euro verloren),"Let op: in de eerste sessie won je niks als je keus fout was, maar in deze sessie VERLIES je 0.1 euro als je het fout hebt!",plusmin,tweede,0,rating,attractiveness,Hoe aantrekkelijk vind jij dit gezicht?,None,logs/sub-98/anim-neutral_id-1289_gender-female_rewardprob-64_session-plusmin.png,64,,,,,,0,1,1,1,0,4,4,2,0,2,2,1,,,,,,,,,,,,,,,,,1,2.437,,,,,,,,,98,keyboard,2018_Oct_09_1104,pilot_RL,59.952793529799195,
logs/sub-98/stims_session-plusmin.csv,logs/sub-98/trials_phase-learning_session-plusmin.csv,VERLIES je %.1f euro.,"gestraft wordt, doordat je 0.1 euro verliest.",(0.1 euro verloren),"Let op: in de eerste sessie won je niks als je keus fout was, maar in deze sessie VERLIES je 0.1 euro als je het fout hebt!",plusmin,tweede,0,rating,attractiveness,Hoe aantrekkelijk vind jij dit gezicht?,None,logs/sub-98/anim-neutral_id-1260_gender-female_rewardprob-36_session-plusmin.png,64,,,,,,0,1,1,1,0,4,4,2,0,3,3,2,,,,,,,,,,,,,,,,,1,3.153,,,,,,,,,98,keyboard,2018_Oct_09_1104,pilot_RL,59.952793529799195,
logs/sub-98/stims_session-plusmin.csv,logs/sub-98/trials_phase-learning_session-plusmin.csv,VERLIES je %.1f euro.,"gestraft wordt, doordat je 0.1 euro verliest.",(0.1 euro verloren),"Let op: in de eerste sessie won je niks als je keus fout was, maar in deze sessie VERLIES je 0.1 euro als je het fout hebt!",plusmin,tweede,0,learning,,,,,,64_vs_36,logs/sub-98/anim-neutral_id-1260_gender-female_rewardprob-36_session-plusmin.png,logs/sub-98/anim-neutral_id-1289_gender-female_rewardprob-64_session-plusmin.png,j,,0,1,1,1,,,,,,,,,,,,,0,0,0,84,,,,,,,,,,,,,,f,0,1.2028297830111114,,,98,keyboard,2018_Oct_09_1104,pilot_RL,59.952793529799195,
logs/sub-98/stims_session-plusmin.csv,logs/sub-98/trials_phase-learning_session-plusmin.csv,VERLIES je %.1f euro.,"gestraft wordt, doordat je 0.1 euro verliest.",(0.1 euro verloren),"Let op: in de eerste sessie won je niks als je keus fout was, maar in deze sessie VERLIES je 0.1 euro als je het fout hebt!",plusmin,tweede,0,learning,,,,,,64_vs_36,logs/sub-98/anim-neutral_id-1289_gender-female_rewardprob-64_session-plusmin.png,logs/sub-98/anim-neutral_id-1260_gender-female_rewardprob-36_session-plusmin.png,f,,0,1,1,1,,,,,,,,,,,,,0,1,1,56,,,,,,,,,,,,,,j,0,0.9500115650007501,,,98,keyboard,2018_Oct_09_1104,pilot_RL,59.952793529799195,
logs/sub-98/stims_session-plusmin.csv,logs/sub-98/trials_phase-learning_session-plusmin.csv,VERLIES je %.1f euro.,"gestraft wordt, doordat je 0.1 euro verliest.",(0.1 euro verloren),"Let op: in de eerste sessie won je niks als je keus fout was, maar in deze sessie VERLIES je 0.1 euro als je het fout hebt!",plusmin,tweede,0,learning,,,,,,64_vs_36,logs/sub-98/anim-neutral_id-1289_gender-female_rewardprob-64_session-plusmin.png,logs/sub-98/anim-neutral_id-1260_gender-female_rewardprob-36_session-plusmin.png,f,,0,1,1,1,,,,,,,,,,,,,0,2,2,50,,,,,,,,,,,,,,f,1,0.936186174993054,,,98,keyboard,2018_Oct_09_1104,pilot_RL,59.952793529799195,
logs/sub-98/stims_session-plusmin.csv,logs/sub-98/trials_phase-learning_session-plusmin.csv,VERLIES je %.1f euro.,"gestraft wordt, doordat je 0.1 euro verliest.",(0.1 euro verloren),"Let op: in de eerste sessie won je niks als je keus fout was, maar in deze sessie VERLIES je 0.1 euro als je het fout hebt!",plusmin,tweede,0,learning,,,,,,80_vs_20,logs/sub-98/anim-neutral_id-1264_gender-female_rewardprob-20_session-plusmin.png,logs/sub-98/anim-neutral_id-1297_gender-female_rewardprob-80_session-plusmin.png,j,,0,1,1,1,,,,,,,,,,,,,0,3,3,35,,,,,,,,,,,,,,f,0,1.1834478310047416,,,98,keyboard,2018_Oct_09_1104,pilot_RL,59.952793529799195,
logs/sub-98/stims_session-plusmin.csv,logs/sub-98/trials_phase-learning_session-plusmin.csv,VERLIES je %.1f euro.,"gestraft wordt, doordat je 0.1 euro verliest.",(0.1 euro verloren),"Let op: in de eerste sessie won je niks als je keus fout was, maar in deze sessie VERLIES je 0.1 euro als je het fout hebt!",plusmin,tweede,0,learning,,,,,,64_vs_36,logs/sub-98/anim-neutral_id-1260_gender-female_rewardprob-36_session-plusmin.png,logs/sub-98/anim-neutral_id-1289_gender-female_rewardprob-64_session-plusmin.png,j,,0,1,1,1,,,,,,,,,,,,,0,4,4,90,,,,,,,,,,,,,,f,0,1.2021563120069914,,,98,keyboard,2018_Oct_09_1104,pilot_RL,59.952793529799195,
logs/sub-98/stims_session-plusmin.csv,logs/sub-98/trials_phase-learning_session-plusmin.csv,VERLIES je %.1f euro.,"gestraft wordt, doordat je 0.1 euro verliest.",(0.1 euro verloren),"Let op: in de eerste sessie won je niks als je keus fout was, maar in deze sessie VERLIES je 0.1 euro als je het fout hebt!",plusmin,tweede,0,learning,,,,,,64_vs_36,logs/sub-98/anim-neutral_id-1289_gender-female_rewardprob-64_session-plusmin.png,logs/sub-98/anim-neutral_id-1260_gender-female_rewardprob-36_session-plusmin.png,f,,0,1,1,1,,,,,,,,,,,,,0,5,5,63,,,,,,,,,,,,,,f,1,1.4863999390072422,,,98,keyboard,2018_Oct_09_1104,pilot_RL,59.952793529799195,
logs/sub-98/stims_session-plusmin.csv,logs/sub-98/trials_phase-learning_session-plusmin.csv,VERLIES je %.1f euro.,"gestraft wordt, doordat je 0.1 euro verliest.",(0.1 euro verloren),"Let op: in de eerste sessie won je niks als je keus fout was, maar in deze sessie VERLIES je 0.1 euro als je het fout hebt!",plusmin,tweede,0,learning,,,,,,80_vs_20,logs/sub-98/anim-neutral_id-1264_gender-female_rewardprob-20_session-plusmin.png,logs/sub-98/anim-neutral_id-1297_gender-female_rewardprob-80_session-plusmin.png,j,,0,1,1,1,,,,,,,,,,,,,0,6,6,47,,,,,,,,,,,,,,f,0,1.1838463040039642,,,98,keyboard,2018_Oct_09_1104,pilot_RL,59.952793529799195,
logs/sub-98/stims_session-plusmin.csv,logs/sub-98/trials_phase-learning_session-plusmin.csv,VERLIES je %.1f euro.,"gestraft wordt, doordat je 0.1 euro verliest.",(0.1 euro verloren),"Let op: in de eerste sessie won je niks als je keus fout was, maar in deze sessie VERLIES je 0.1 euro als je het fout hebt!",plusmin,tweede,0,learning,,,,,,64_vs_36,logs/sub-98/anim-neutral_id-1289_gender-female_rewardprob-64_session-plusmin.png,logs/sub-98/anim-neutral_id-1260_gender-female_rewardprob-36_session-plusmin.png,j,,0,1,1,1,,,,,,,,,,,,,0,7,7,70,,,,,,,,,,,,,,f,0,1.9361171170021407,,,98,keyboard,2018_Oct_09_1104,pilot_RL,59.952793529799195,
logs/sub-98/stims_session-plusmin.csv,logs/sub-98/trials_phase-learning_session-plusmin.csv,VERLIES je %.1f euro.,"gestraft wordt, doordat je 0.1 euro verliest.",(0.1 euro verloren),"Let op: in de eerste sessie won je niks als je keus fout was, maar in deze sessie VERLIES je 0.1 euro als je het fout hebt!",plusmin,tweede,0,learning,,,,,,64_vs_36,logs/sub-98/anim-neutral_id-1289_gender-female_rewardprob-64_session-plusmin.png,logs/sub-98/anim-neutral_id-1260_gender-female_rewardprob-36_session-plusmin.png,f,,0,1,1,1,,,,,,,,,,,,,0,8,8,52,,,,,,,,,,,,,,f,1,1.4365083849988878,,,98,keyboard,2018_Oct_09_1104,pilot_RL,59.952793529799195,
logs/sub-98/stims_session-plusmin.csv,logs/sub-98/trials_phase-learning_session-plusmin.csv,VERLIES je %.1f euro.,"gestraft wordt, doordat je 0.1 euro verliest.",(0.1 euro verloren),"Let op: in de eerste sessie won je niks als je keus fout was, maar in deze sessie VERLIES je 0.1 euro als je het fout hebt!",plusmin,tweede,0,learning,,,,,,64_vs_36,logs/sub-98/anim-neutral_id-1289_gender-female_rewardprob-64_session-plusmin.png,logs/sub-98/anim-neutral_id-1260_gender-female_rewardprob-36_session-plusmin.png,f,,0,1,1,1,,,,,,,,,,,,,0,9,9,65,,,,,,,,,,,,,,f,1,0.9169291439902736,,,98,keyboard,2018_Oct_09_1104,pilot_RL,59.952793529799195,
logs/sub-98/stims_session-plusmin.csv,logs/sub-98/trials_phase-learning_session-plusmin.csv,VERLIES je %.1f euro.,"gestraft wordt, doordat je 0.1 euro verliest.",(0.1 euro verloren),"Let op: in de eerste sessie won je niks als je keus fout was, maar in deze sessie VERLIES je 0.1 euro als je het fout hebt!",plusmin,tweede,0,learning,,,,,,64_vs_36,logs/sub-98/anim-neutral_id-1260_gender-female_rewardprob-36_session-plusmin.png,logs/sub-98/anim-neutral_id-1289_gender-female_rewardprob-64_session-plusmin.png,j,,0,1,1,1,,,,,,,,,,,,,0,10,10,86,,,,,,,,,,,,,,j,1,0.8491007369884755,,,98,keyboard,2018_Oct_09_1104,pilot_RL,59.952793529799195,
logs/sub-98/stims_session-plusmin.csv,logs/sub-98/trials_phase-learning_session-plusmin.csv,VERLIES je %.1f euro.,"gestraft wordt, doordat je 0.1 euro verliest.",(0.1 euro verloren),"Let op: in de eerste sessie won je niks als je keus fout was, maar in deze sessie VERLIES je 0.1 euro als je het fout hebt!",plusmin,tweede,0,learning,,,,,,80_vs_20,logs/sub-98/anim-neutral_id-1297_gender-female_rewardprob-80_session-plusmin.png,logs/sub-98/anim-neutral_id-1264_gender-female_rewardprob-20_session-plusmin.png,f,,0,1,1,1,,,,,,,,,,,,,0,11,11,16,,,,,,,,,,,,,,f,1,1.5664819399971748,,,98,keyboard,2018_Oct_09_1104,pilot_RL,59.952793529799195,
logs/sub-98/stims_session-plusmin.csv,logs/sub-98/trials_phase-learning_session-plusmin.csv,VERLIES je %.1f euro.,"gestraft wordt, doordat je 0.1 euro verliest.",(0.1 euro verloren),"Let op: in de eerste sessie won je niks als je keus fout was, maar in deze sessie VERLIES je 0.1 euro als je het fout hebt!",plusmin,tweede,0,learning,,,,,,64_vs_36,logs/sub-98/anim-neutral_id-1260_gender-female_rewardprob-36_session-plusmin.png,logs/sub-98/anim-neutral_id-1289_gender-female_rewardprob-64_session-plusmin.png,j,,0,1,1,1,,,,,,,,,,,,,0,12,12,96,,,,,,,,,,,,,,j,1,1.4166000039986102,,,98,keyboard,2018_Oct_09_1104,pilot_RL,59.952793529799195,
logs/sub-98/stims_session-plusmin.csv,logs/sub-98/trials_phase-learning_session-plusmin.csv,VERLIES je %.1f euro.,"gestraft wordt, doordat je 0.1 euro verliest.",(0.1 euro verloren),"Let op: in de eerste sessie won je niks als je keus fout was, maar in deze sessie VERLIES je 0.1 euro als je het fout hebt!",plusmin,tweede,0,learning,,,,,,80_vs_20,logs/sub-98/anim-neutral_id-1297_gender-female_rewardprob-80_session-plusmin.png,logs/sub-98/anim-neutral_id-1264_gender-female_rewardprob-20_session-plusmin.png,f,,0,1,1,1,,,,,,,,,,,,,0,13,13,15,,,,,,,,,,,,,,f,1,1.1011714870110154,,,98,keyboard,2018_Oct_09_1104,pilot_RL,59.952793529799195,
logs/sub-98/stims_session-plusmin.csv,logs/sub-98/trials_phase-learning_session-plusmin.csv,VERLIES je %.1f euro.,"gestraft wordt, doordat je 0.1 euro verliest.",(0.1 euro verloren),"Let op: in de eerste sessie won je niks als je keus fout was, maar in deze sessie VERLIES je 0.1 euro als je het fout hebt!",plusmin,tweede,0,learning,,,,,,80_vs_20,logs/sub-98/anim-neutral_id-1264_gender-female_rewardprob-20_session-plusmin.png,logs/sub-98/anim-neutral_id-1297_gender-female_rewardprob-80_session-plusmin.png,j,,0,1,1,1,,,,,,,,,,,,,0,14,14,31,,,,,,,,,,,,,,j,1,1.3667607690003933,,,98,keyboard,2018_Oct_09_1104,pilot_RL,59.952793529799195,
logs/sub-98/stims_session-plusmin.csv,logs/sub-98/trials_phase-learning_session-plusmin.csv,VERLIES je %.1f euro.,"gestraft wordt, doordat je 0.1 euro verliest.",(0.1 euro verloren),"Let op: in de eerste sessie won je niks als je keus fout was, maar in deze sessie VERLIES je 0.1 euro als je het fout hebt!",plusmin,tweede,0,learning,,,,,,80_vs_20,logs/sub-98/anim-neutral_id-1297_gender-female_rewardprob-80_session-plusmin.png,logs/sub-98/anim-neutral_id-1264_gender-female_rewardprob-20_session-plusmin.png,f,,0,1,1,1,,,,,,,,,,,,,0,15,15,12,,,,,,,,,,,,,,f,1,1.0337416289985413,,,98,keyboard,2018_Oct_09_1104,pilot_RL,59.952793529799195,
logs/sub-98/stims_session-plusmin.csv,logs/sub-98/trials_phase-learning_session-plusmin.csv,VERLIES je %.1f euro.,"gestraft wordt, doordat je 0.1 euro verliest.",(0.1 euro verloren),"Let op: in de eerste sessie won je niks als je keus fout was, maar in deze sessie VERLIES je 0.1 euro als je het fout hebt!",plusmin,tweede,0,learning,,,,,,80_vs_20,logs/sub-98/anim-neutral_id-1297_gender-female_rewardprob-80_session-plusmin.png,logs/sub-98/anim-neutral_id-1264_gender-female_rewardprob-20_session-plusmin.png,f,,0,1,1,1,,,,,,,,,,,,,0,16,16,7,,,,,,,,,,,,,,f,1,0.9325836399948457,,,98,keyboard,2018_Oct_09_1104,pilot_RL,59.952793529799195,
logs/sub-98/stims_session-plusmin.csv,logs/sub-98/trials_phase-learning_session-plusmin.csv,VERLIES je %.1f euro.,"gestraft wordt, doordat je 0.1 euro verliest.",(0.1 euro verloren),"Let op: in de eerste sessie won je niks als je keus fout was, maar in deze sessie VERLIES je 0.1 euro als je het fout hebt!",plusmin,tweede,0,learning,,,,,,64_vs_36,logs/sub-98/anim-neutral_id-1260_gender-female_rewardprob-36_session-plusmin.png,logs/sub-98/anim-neutral_id-1289_gender-female_rewardprob-64_session-plusmin.png,j,,0,1,1,1,,,,,,,,,,,,,0,17,17,97,,,,,,,,,,,,,,j,1,0.9193104300065897,,,98,keyboard,2018_Oct_09_1104,pilot_RL,59.952793529799195,
logs/sub-98/stims_session-plusmin.csv,logs/sub-98/trials_phase-learning_session-plusmin.csv,VERLIES je %.1f euro.,"gestraft wordt, doordat je 0.1 euro verliest.",(0.1 euro verloren),"Let op: in de eerste sessie won je niks als je keus fout was, maar in deze sessie VERLIES je 0.1 euro als je het fout hebt!",plusmin,tweede,0,learning,,,,,,80_vs_20,logs/sub-98/anim-neutral_id-1297_gender-female_rewardprob-80_session-plusmin.png,logs/sub-98/anim-neutral_id-1264_gender-female_rewardprob-20_session-plusmin.png,f,,0,1,1,1,,,,,,,,,,,,,0,18,18,3,,,,,,,,,,,,,,f,1,0.8151226119953208,,,98,keyboard,2018_Oct_09_1104,pilot_RL,59.952793529799195,
