phase,rating_attribute,rating_question,rating_question_details,rating_low,rating_high,stim_file,age,gender,stim_csv,trial_csv,RL_wrong_instruction,RL_wrong_instruction_n,feedback_txt_incorrect,RL_session_notice,session_name,number_str,practice_reps,condition,left_face,right_face,rewarded_resp,correct_face,reward_prob,pre_rating_scales_loop.thisRepN,pre_rating_scales_loop.thisTrialN,pre_rating_scales_loop.thisN,pre_rating_scales_loop.thisIndex,pre_rating_stims_loop.thisRepN,pre_rating_stims_loop.thisTrialN,pre_rating_stims_loop.thisN,pre_rating_stims_loop.thisIndex,session_loop.thisRepN,session_loop.thisTrialN,session_loop.thisN,session_loop.thisIndex,practice_trials.thisRepN,practice_trials.thisTrialN,practice_trials.thisN,practice_trials.thisIndex,real_trials.thisRepN,real_trials.thisTrialN,real_trials.thisN,real_trials.thisIndex,post_rating_loop.thisRepN,post_rating_loop.thisTrialN,post_rating_loop.thisN,post_rating_loop.thisIndex,post_neutral_face_loop.thisRepN,post_neutral_face_loop.thisTrialN,post_neutral_face_loop.thisN,post_neutral_face_loop.thisIndex,pre_rating_scale.response,pre_rating_scale.rt,practice_response.keys,practice_response.corr,practice_response.rt,real_RL_response.keys,real_RL_response.corr,real_RL_response.rt,post_rating_scale.response,post_rating_scale.rt,participant,participant_gender,skip_practice,skip_ratings,date,expName,frameRate
rating,dominance,Hoe dominant vind jij dit gezicht?,Je beoordeelt dit op een schaal van ‘Helemaal niet dominant’ tot ‘Zeer dominant’.,Helemaal niet dominant,Zeer dominant,stims/neutral_stims/id-1378_gender-F_age-19.png,19,F,,,,,,,,,,,,,,,,0,0,0,4,0,0,0,48,,,,,,,,,,,,,,,,,,,,,-2,2.7,,,,,,,,,99,M,FALSE,FALSE,2018_okt_15_1409,pilot_RL,29.99706506
rating,dominance,Hoe dominant vind jij dit gezicht?,Je beoordeelt dit op een schaal van ‘Helemaal niet dominant’ tot ‘Zeer dominant’.,Helemaal niet dominant,Zeer dominant,stims/neutral_stims/id-1291_gender-F_age-24.png,24,F,,,,,,,,,,,,,,,,0,0,0,4,0,1,1,12,,,,,,,,,,,,,,,,,,,,,2,1.234,,,,,,,,,99,M,FALSE,FALSE,2018_okt_15_1409,pilot_RL,29.99706506
rating,dominance,Hoe dominant vind jij dit gezicht?,Je beoordeelt dit op een schaal van ‘Helemaal niet dominant’ tot ‘Zeer dominant’.,Helemaal niet dominant,Zeer dominant,stims/neutral_stims/id-1358_gender-F_age-32.png,32,F,,,,,,,,,,,,,,,,0,0,0,4,0,2,2,37,,,,,,,,,,,,,,,,,,,,,0,1.901,,,,,,,,,99,M,FALSE,FALSE,2018_okt_15_1409,pilot_RL,29.99706506
rating,dominance,Hoe dominant vind jij dit gezicht?,Je beoordeelt dit op een schaal van ‘Helemaal niet dominant’ tot ‘Zeer dominant’.,Helemaal niet dominant,Zeer dominant,stims/neutral_stims/id-1339_gender-F_age-30.png,30,F,,,,,,,,,,,,,,,,0,0,0,4,0,3,3,28,,,,,,,,,,,,,,,,,,,,,-2,1.168,,,,,,,,,99,M,FALSE,FALSE,2018_okt_15_1409,pilot_RL,29.99706506
rating,dominance,Hoe dominant vind jij dit gezicht?,Je beoordeelt dit op een schaal van ‘Helemaal niet dominant’ tot ‘Zeer dominant’.,Helemaal niet dominant,Zeer dominant,stims/neutral_stims/id-1302_gender-F_age-30.png,30,F,,,,,,,,,,,,,,,,0,0,0,4,0,4,4,18,,,,,,,,,,,,,,,,,,,,,-1,1.801,,,,,,,,,99,M,FALSE,FALSE,2018_okt_15_1409,pilot_RL,29.99706506
rating,dominance,Hoe dominant vind jij dit gezicht?,Je beoordeelt dit op een schaal van ‘Helemaal niet dominant’ tot ‘Zeer dominant’.,Helemaal niet dominant,Zeer dominant,stims/neutral_stims/id-1315_gender-M_age-16.png,16,M,,,,,,,,,,,,,,,,0,0,0,4,0,5,5,24,,,,,,,,,,,,,,,,,,,,,1,1.3,,,,,,,,,99,M,FALSE,FALSE,2018_okt_15_1409,pilot_RL,29.99706506
rating,dominance,Hoe dominant vind jij dit gezicht?,Je beoordeelt dit op een schaal van ‘Helemaal niet dominant’ tot ‘Zeer dominant’.,Helemaal niet dominant,Zeer dominant,stims/neutral_stims/id-1370_gender-M_age-19.png,19,M,,,,,,,,,,,,,,,,0,0,0,4,0,6,6,44,,,,,,,,,,,,,,,,,,,,,-2,1.268,,,,,,,,,99,M,FALSE,FALSE,2018_okt_15_1409,pilot_RL,29.99706506
rating,dominance,Hoe dominant vind jij dit gezicht?,Je beoordeelt dit op een schaal van ‘Helemaal niet dominant’ tot ‘Zeer dominant’.,Helemaal niet dominant,Zeer dominant,stims/neutral_stims/id-1360_gender-F_age-20.png,20,F,,,,,,,,,,,,,,,,0,0,0,4,0,7,7,38,,,,,,,,,,,,,,,,,,,,,0,1.401,,,,,,,,,99,M,FALSE,FALSE,2018_okt_15_1409,pilot_RL,29.99706506
rating,dominance,Hoe dominant vind jij dit gezicht?,Je beoordeelt dit op een schaal van ‘Helemaal niet dominant’ tot ‘Zeer dominant’.,Helemaal niet dominant,Zeer dominant,stims/neutral_stims/id-1279_gender-F_age-19.png,19,F,,,,,,,,,,,,,,,,0,0,0,4,0,8,8,7,,,,,,,,,,,,,,,,,,,,,-3,1.401,,,,,,,,,99,M,FALSE,FALSE,2018_okt_15_1409,pilot_RL,29.99706506
rating,dominance,Hoe dominant vind jij dit gezicht?,Je beoordeelt dit op een schaal van ‘Helemaal niet dominant’ tot ‘Zeer dominant’.,Helemaal niet dominant,Zeer dominant,stims/neutral_stims/id-1354_gender-F_age-23.png,23,F,,,,,,,,,,,,,,,,0,0,0,4,0,9,9,34,,,,,,,,,,,,,,,,,,,,,1,1.234,,,,,,,,,99,M,FALSE,FALSE,2018_okt_15_1409,pilot_RL,29.99706506
rating,dominance,Hoe dominant vind jij dit gezicht?,Je beoordeelt dit op een schaal van ‘Helemaal niet dominant’ tot ‘Zeer dominant’.,Helemaal niet dominant,Zeer dominant,stims/neutral_stims/id-1355_gender-F_age-19.png,19,F,,,,,,,,,,,,,,,,0,0,0,4,0,10,10,35,,,,,,,,,,,,,,,,,,,,,-2,1.234,,,,,,,,,99,M,FALSE,FALSE,2018_okt_15_1409,pilot_RL,29.99706506
rating,dominance,Hoe dominant vind jij dit gezicht?,Je beoordeelt dit op een schaal van ‘Helemaal niet dominant’ tot ‘Zeer dominant’.,Helemaal niet dominant,Zeer dominant,stims/neutral_stims/id-1266_gender-M_age-21.png,21,M,,,,,,,,,,,,,,,,0,0,0,4,0,11,11,2,,,,,,,,,,,,,,,,,,,,,-1,9.633,,,,,,,,,99,M,FALSE,FALSE,2018_okt_15_1409,pilot_RL,29.99706506
rating,dominance,Hoe dominant vind jij dit gezicht?,Je beoordeelt dit op een schaal van ‘Helemaal niet dominant’ tot ‘Zeer dominant’.,Helemaal niet dominant,Zeer dominant,stims/neutral_stims/id-1342_gender-M_age-19.png,19,M,,,,,,,,,,,,,,,,0,0,0,4,0,12,12,30,,,,,,,,,,,,,,,,,,,,,3,1.401,,,,,,,,,99,M,FALSE,FALSE,2018_okt_15_1409,pilot_RL,29.99706506
rating,dominance,Hoe dominant vind jij dit gezicht?,Je beoordeelt dit op een schaal van ‘Helemaal niet dominant’ tot ‘Zeer dominant’.,Helemaal niet dominant,Zeer dominant,stims/neutral_stims/id-1356_gender-F_age-20.png,20,F,,,,,,,,,,,,,,,,0,0,0,4,0,13,13,36,,,,,,,,,,,,,,,,,,,,,-2,2.635,,,,,,,,,99,M,FALSE,FALSE,2018_okt_15_1409,pilot_RL,29.99706506
rating,dominance,Hoe dominant vind jij dit gezicht?,Je beoordeelt dit op een schaal van ‘Helemaal niet dominant’ tot ‘Zeer dominant’.,Helemaal niet dominant,Zeer dominant,stims/neutral_stims/id-1269_gender-F_age-23.png,23,F,,,,,,,,,,,,,,,,0,0,0,4,0,14,14,3,,,,,,,,,,,,,,,,,,,,,1,1.168,,,,,,,,,99,M,FALSE,FALSE,2018_okt_15_1409,pilot_RL,29.99706506
rating,dominance,Hoe dominant vind jij dit gezicht?,Je beoordeelt dit op een schaal van ‘Helemaal niet dominant’ tot ‘Zeer dominant’.,Helemaal niet dominant,Zeer dominant,stims/neutral_stims/id-1341_gender-M_age-19.png,19,M,,,,,,,,,,,,,,,,0,0,0,4,0,15,15,29,,,,,,,,,,,,,,,,,,,,,-1,1.801,,,,,,,,,99,M,FALSE,FALSE,2018_okt_15_1409,pilot_RL,29.99706506
rating,dominance,Hoe dominant vind jij dit gezicht?,Je beoordeelt dit op een schaal van ‘Helemaal niet dominant’ tot ‘Zeer dominant’.,Helemaal niet dominant,Zeer dominant,stims/neutral_stims/id-1310_gender-F_age-28.png,28,F,,,,,,,,,,,,,,,,0,0,0,4,0,16,16,22,,,,,,,,,,,,,,,,,,,,,1,1.401,,,,,,,,,99,M,FALSE,FALSE,2018_okt_15_1409,pilot_RL,29.99706506
rating,dominance,Hoe dominant vind jij dit gezicht?,Je beoordeelt dit op een schaal van ‘Helemaal niet dominant’ tot ‘Zeer dominant’.,Helemaal niet dominant,Zeer dominant,stims/neutral_stims/id-1335_gender-M_age-23.png,23,M,,,,,,,,,,,,,,,,0,0,0,4,0,17,17,27,,,,,,,,,,,,,,,,,,,,,-1,1.836,,,,,,,,,99,M,FALSE,FALSE,2018_okt_15_1409,pilot_RL,29.99706506
rating,dominance,Hoe dominant vind jij dit gezicht?,Je beoordeelt dit op een schaal van ‘Helemaal niet dominant’ tot ‘Zeer dominant’.,Helemaal niet dominant,Zeer dominant,stims/neutral_stims/id-1274_gender-F_age-33.png,33,F,,,,,,,,,,,,,,,,0,0,0,4,0,18,18,6,,,,,,,,,,,,,,,,,,,,,1,1.166,,,,,,,,,99,M,FALSE,FALSE,2018_okt_15_1409,pilot_RL,29.99706506
rating,dominance,Hoe dominant vind jij dit gezicht?,Je beoordeelt dit op een schaal van ‘Helemaal niet dominant’ tot ‘Zeer dominant’.,Helemaal niet dominant,Zeer dominant,stims/neutral_stims/id-1380_gender-F_age-21.png,21,F,,,,,,,,,,,,,,,,0,0,0,4,0,19,19,49,,,,,,,,,,,,,,,,,,,,,0,1.401,,,,,,,,,99,M,FALSE,FALSE,2018_okt_15_1409,pilot_RL,29.99706506
rating,dominance,Hoe dominant vind jij dit gezicht?,Je beoordeelt dit op een schaal van ‘Helemaal niet dominant’ tot ‘Zeer dominant’.,Helemaal niet dominant,Zeer dominant,stims/neutral_stims/id-1363_gender-M_age-19.png,19,M,,,,,,,,,,,,,,,,0,0,0,4,0,20,20,41,,,,,,,,,,,,,,,,,,,,,0,1.368,,,,,,,,,99,M,FALSE,FALSE,2018_okt_15_1409,pilot_RL,29.99706506
rating,dominance,Hoe dominant vind jij dit gezicht?,Je beoordeelt dit op een schaal van ‘Helemaal niet dominant’ tot ‘Zeer dominant’.,Helemaal niet dominant,Zeer dominant,stims/neutral_stims/id-1264_gender-F_age-26.png,26,F,,,,,,,,,,,,,,,,0,0,0,4,0,21,21,1,,,,,,,,,,,,,,,,,,,,,1,1.101,,,,,,,,,99,M,FALSE,FALSE,2018_okt_15_1409,pilot_RL,29.99706506
rating,dominance,Hoe dominant vind jij dit gezicht?,Je beoordeelt dit op een schaal van ‘Helemaal niet dominant’ tot ‘Zeer dominant’.,Helemaal niet dominant,Zeer dominant,stims/neutral_stims/id-1280_gender-M_age-18.png,18,M,,,,,,,,,,,,,,,,0,0,0,4,0,22,22,8,,,,,,,,,,,,,,,,,,,,,1,1.134,,,,,,,,,99,M,FALSE,FALSE,2018_okt_15_1409,pilot_RL,29.99706506
rating,dominance,Hoe dominant vind jij dit gezicht?,Je beoordeelt dit op een schaal van ‘Helemaal niet dominant’ tot ‘Zeer dominant’.,Helemaal niet dominant,Zeer dominant,stims/neutral_stims/id-1295_gender-F_age-26.png,26,F,,,,,,,,,,,,,,,,0,0,0,4,0,23,23,15,,,,,,,,,,,,,,,,,,,,,1,1.234,,,,,,,,,99,M,FALSE,FALSE,2018_okt_15_1409,pilot_RL,29.99706506
rating,dominance,Hoe dominant vind jij dit gezicht?,Je beoordeelt dit op een schaal van ‘Helemaal niet dominant’ tot ‘Zeer dominant’.,Helemaal niet dominant,Zeer dominant,stims/neutral_stims/id-1377_gender-M_age-20.png,20,M,,,,,,,,,,,,,,,,0,0,0,4,0,24,24,47,,,,,,,,,,,,,,,,,,,,,0,1.169,,,,,,,,,99,M,FALSE,FALSE,2018_okt_15_1409,pilot_RL,29.99706506
rating,dominance,Hoe dominant vind jij dit gezicht?,Je beoordeelt dit op een schaal van ‘Helemaal niet dominant’ tot ‘Zeer dominant’.,Helemaal niet dominant,Zeer dominant,stims/neutral_stims/id-1290_gender-F_age-23.png,23,F,,,,,,,,,,,,,,,,0,0,0,4,0,25,25,11,,,,,,,,,,,,,,,,,,,,,2,1.066,,,,,,,,,99,M,FALSE,FALSE,2018_okt_15_1409,pilot_RL,29.99706506
rating,dominance,Hoe dominant vind jij dit gezicht?,Je beoordeelt dit op een schaal van ‘Helemaal niet dominant’ tot ‘Zeer dominant’.,Helemaal niet dominant,Zeer dominant,stims/neutral_stims/id-1311_gender-F_age-22.png,22,F,,,,,,,,,,,,,,,,0,0,0,4,0,26,26,23,,,,,,,,,,,,,,,,,,,,,-1,1.335,,,,,,,,,99,M,FALSE,FALSE,2018_okt_15_1409,pilot_RL,29.99706506
rating,dominance,Hoe dominant vind jij dit gezicht?,Je beoordeelt dit op een schaal van ‘Helemaal niet dominant’ tot ‘Zeer dominant’.,Helemaal niet dominant,Zeer dominant,stims/neutral_stims/id-1362_gender-F_age-24.png,24,F,,,,,,,,,,,,,,,,0,0,0,4,0,27,27,40,,,,,,,,,,,,,,,,,,,,,0,1.068,,,,,,,,,99,M,FALSE,FALSE,2018_okt_15_1409,pilot_RL,29.99706506
rating,dominance,Hoe dominant vind jij dit gezicht?,Je beoordeelt dit op een schaal van ‘Helemaal niet dominant’ tot ‘Zeer dominant’.,Helemaal niet dominant,Zeer dominant,stims/neutral_stims/id-1306_gender-F_age-21.png,21,F,,,,,,,,,,,,,,,,0,0,0,4,0,28,28,19,,,,,,,,,,,,,,,,,,,,,0,1.134,,,,,,,,,99,M,FALSE,FALSE,2018_okt_15_1409,pilot_RL,29.99706506
rating,dominance,Hoe dominant vind jij dit gezicht?,Je beoordeelt dit op een schaal van ‘Helemaal niet dominant’ tot ‘Zeer dominant’.,Helemaal niet dominant,Zeer dominant,stims/neutral_stims/id-1293_gender-F_age-31.png,31,F,,,,,,,,,,,,,,,,0,0,0,4,0,29,29,13,,,,,,,,,,,,,,,,,,,,,0,1.701,,,,,,,,,99,M,FALSE,FALSE,2018_okt_15_1409,pilot_RL,29.99706506
rating,dominance,Hoe dominant vind jij dit gezicht?,Je beoordeelt dit op een schaal van ‘Helemaal niet dominant’ tot ‘Zeer dominant’.,Helemaal niet dominant,Zeer dominant,stims/neutral_stims/id-1270_gender-F_age-30.png,30,F,,,,,,,,,,,,,,,,0,0,0,4,0,30,30,4,,,,,,,,,,,,,,,,,,,,,-1,1.169,,,,,,,,,99,M,FALSE,FALSE,2018_okt_15_1409,pilot_RL,29.99706506
rating,dominance,Hoe dominant vind jij dit gezicht?,Je beoordeelt dit op een schaal van ‘Helemaal niet dominant’ tot ‘Zeer dominant’.,Helemaal niet dominant,Zeer dominant,stims/neutral_stims/id-1296_gender-F_age-23.png,23,F,,,,,,,,,,,,,,,,0,0,0,4,0,31,31,16,,,,,,,,,,,,,,,,,,,,,-1,0.9,,,,,,,,,99,M,FALSE,FALSE,2018_okt_15_1409,pilot_RL,29.99706506
rating,dominance,Hoe dominant vind jij dit gezicht?,Je beoordeelt dit op een schaal van ‘Helemaal niet dominant’ tot ‘Zeer dominant’.,Helemaal niet dominant,Zeer dominant,stims/neutral_stims/id-1367_gender-M_age-20.png,20,M,,,,,,,,,,,,,,,,0,0,0,4,0,32,32,43,,,,,,,,,,,,,,,,,,,,,1,1.068,,,,,,,,,99,M,FALSE,FALSE,2018_okt_15_1409,pilot_RL,29.99706506
rating,dominance,Hoe dominant vind jij dit gezicht?,Je beoordeelt dit op een schaal van ‘Helemaal niet dominant’ tot ‘Zeer dominant’.,Helemaal niet dominant,Zeer dominant,stims/neutral_stims/id-1289_gender-F_age-20.png,20,F,,,,,,,,,,,,,,,,0,0,0,4,0,33,33,10,,,,,,,,,,,,,,,,,,,,,-1,1.168,,,,,,,,,99,M,FALSE,FALSE,2018_okt_15_1409,pilot_RL,29.99706506
rating,dominance,Hoe dominant vind jij dit gezicht?,Je beoordeelt dit op een schaal van ‘Helemaal niet dominant’ tot ‘Zeer dominant’.,Helemaal niet dominant,Zeer dominant,stims/neutral_stims/id-1373_gender-F_age-30.png,30,F,,,,,,,,,,,,,,,,0,0,0,4,0,34,34,45,,,,,,,,,,,,,,,,,,,,,0,1.968,,,,,,,,,99,M,FALSE,FALSE,2018_okt_15_1409,pilot_RL,29.99706506
rating,dominance,Hoe dominant vind jij dit gezicht?,Je beoordeelt dit op een schaal van ‘Helemaal niet dominant’ tot ‘Zeer dominant’.,Helemaal niet dominant,Zeer dominant,stims/neutral_stims/id-1285_gender-F_age-19.png,19,F,,,,,,,,,,,,,,,,0,0,0,4,0,35,35,9,,,,,,,,,,,,,,,,,,,,,-2,1.401,,,,,,,,,99,M,FALSE,FALSE,2018_okt_15_1409,pilot_RL,29.99706506
rating,dominance,Hoe dominant vind jij dit gezicht?,Je beoordeelt dit op een schaal van ‘Helemaal niet dominant’ tot ‘Zeer dominant’.,Helemaal niet dominant,Zeer dominant,stims/neutral_stims/id-1309_gender-M_age-22.png,22,M,,,,,,,,,,,,,,,,0,0,0,4,0,36,36,21,,,,,,,,,,,,,,,,,,,,,1,1.803,,,,,,,,,99,M,FALSE,FALSE,2018_okt_15_1409,pilot_RL,29.99706506
rating,dominance,Hoe dominant vind jij dit gezicht?,Je beoordeelt dit op een schaal van ‘Helemaal niet dominant’ tot ‘Zeer dominant’.,Helemaal niet dominant,Zeer dominant,stims/neutral_stims/id-1323_gender-F_age-23.png,23,F,,,,,,,,,,,,,,,,0,0,0,4,0,37,37,26,,,,,,,,,,,,,,,,,,,,,1,2.134,,,,,,,,,99,M,FALSE,FALSE,2018_okt_15_1409,pilot_RL,29.99706506
rating,dominance,Hoe dominant vind jij dit gezicht?,Je beoordeelt dit op een schaal van ‘Helemaal niet dominant’ tot ‘Zeer dominant’.,Helemaal niet dominant,Zeer dominant,stims/neutral_stims/id-1347_gender-F_age-27.png,27,F,,,,,,,,,,,,,,,,0,0,0,4,0,38,38,33,,,,,,,,,,,,,,,,,,,,,1,0.968,,,,,,,,,99,M,FALSE,FALSE,2018_okt_15_1409,pilot_RL,29.99706506
rating,dominance,Hoe dominant vind jij dit gezicht?,Je beoordeelt dit op een schaal van ‘Helemaal niet dominant’ tot ‘Zeer dominant’.,Helemaal niet dominant,Zeer dominant,stims/neutral_stims/id-1294_gender-F_age-26.png,26,F,,,,,,,,,,,,,,,,0,0,0,4,0,39,39,14,,,,,,,,,,,,,,,,,,,,,-2,1.067,,,,,,,,,99,M,FALSE,FALSE,2018_okt_15_1409,pilot_RL,29.99706506
rating,dominance,Hoe dominant vind jij dit gezicht?,Je beoordeelt dit op een schaal van ‘Helemaal niet dominant’ tot ‘Zeer dominant’.,Helemaal niet dominant,Zeer dominant,stims/neutral_stims/id-1307_gender-F_age-22.png,22,F,,,,,,,,,,,,,,,,0,0,0,4,0,40,40,20,,,,,,,,,,,,,,,,,,,,,-2,1.734,,,,,,,,,99,M,FALSE,FALSE,2018_okt_15_1409,pilot_RL,29.99706506
rating,dominance,Hoe dominant vind jij dit gezicht?,Je beoordeelt dit op een schaal van ‘Helemaal niet dominant’ tot ‘Zeer dominant’.,Helemaal niet dominant,Zeer dominant,stims/neutral_stims/id-1376_gender-F_age-19.png,19,F,,,,,,,,,,,,,,,,0,0,0,4,0,41,41,46,,,,,,,,,,,,,,,,,,,,,-1,12.868,,,,,,,,,99,M,FALSE,FALSE,2018_okt_15_1409,pilot_RL,29.99706506
rating,dominance,Hoe dominant vind jij dit gezicht?,Je beoordeelt dit op een schaal van ‘Helemaal niet dominant’ tot ‘Zeer dominant’.,Helemaal niet dominant,Zeer dominant,stims/neutral_stims/id-1297_gender-F_age-22.png,22,F,,,,,,,,,,,,,,,,0,0,0,4,0,42,42,17,,,,,,,,,,,,,,,,,,,,,1,1.167,,,,,,,,,99,M,FALSE,FALSE,2018_okt_15_1409,pilot_RL,29.99706506
rating,dominance,Hoe dominant vind jij dit gezicht?,Je beoordeelt dit op een schaal van ‘Helemaal niet dominant’ tot ‘Zeer dominant’.,Helemaal niet dominant,Zeer dominant,stims/neutral_stims/id-1273_gender-F_age-20.png,20,F,,,,,,,,,,,,,,,,0,0,0,4,0,43,43,5,,,,,,,,,,,,,,,,,,,,,-2,1.368,,,,,,,,,99,M,FALSE,FALSE,2018_okt_15_1409,pilot_RL,29.99706506
rating,dominance,Hoe dominant vind jij dit gezicht?,Je beoordeelt dit op een schaal van ‘Helemaal niet dominant’ tot ‘Zeer dominant’.,Helemaal niet dominant,Zeer dominant,stims/neutral_stims/id-1344_gender-M_age-25.png,25,M,,,,,,,,,,,,,,,,0,0,0,4,0,44,44,31,,,,,,,,,,,,,,,,,,,,,1,1.201,,,,,,,,,99,M,FALSE,FALSE,2018_okt_15_1409,pilot_RL,29.99706506
rating,dominance,Hoe dominant vind jij dit gezicht?,Je beoordeelt dit op een schaal van ‘Helemaal niet dominant’ tot ‘Zeer dominant’.,Helemaal niet dominant,Zeer dominant,stims/neutral_stims/id-1361_gender-F_age-19.png,19,F,,,,,,,,,,,,,,,,0,0,0,4,0,45,45,39,,,,,,,,,,,,,,,,,,,,,1,1.268,,,,,,,,,99,M,FALSE,FALSE,2018_okt_15_1409,pilot_RL,29.99706506
rating,dominance,Hoe dominant vind jij dit gezicht?,Je beoordeelt dit op een schaal van ‘Helemaal niet dominant’ tot ‘Zeer dominant’.,Helemaal niet dominant,Zeer dominant,stims/neutral_stims/id-1366_gender-F_age-24.png,24,F,,,,,,,,,,,,,,,,0,0,0,4,0,46,46,42,,,,,,,,,,,,,,,,,,,,,-2,1.034,,,,,,,,,99,M,FALSE,FALSE,2018_okt_15_1409,pilot_RL,29.99706506
rating,dominance,Hoe dominant vind jij dit gezicht?,Je beoordeelt dit op een schaal van ‘Helemaal niet dominant’ tot ‘Zeer dominant’.,Helemaal niet dominant,Zeer dominant,stims/neutral_stims/id-1260_gender-F_age-22.png,22,F,,,,,,,,,,,,,,,,0,0,0,4,0,47,47,0,,,,,,,,,,,,,,,,,,,,,-3,1.434,,,,,,,,,99,M,FALSE,FALSE,2018_okt_15_1409,pilot_RL,29.99706506
rating,dominance,Hoe dominant vind jij dit gezicht?,Je beoordeelt dit op een schaal van ‘Helemaal niet dominant’ tot ‘Zeer dominant’.,Helemaal niet dominant,Zeer dominant,stims/neutral_stims/id-1345_gender-M_age-18.png,18,M,,,,,,,,,,,,,,,,0,0,0,4,0,48,48,32,,,,,,,,,,,,,,,,,,,,,1,1.534,,,,,,,,,99,M,FALSE,FALSE,2018_okt_15_1409,pilot_RL,29.99706506
rating,dominance,Hoe dominant vind jij dit gezicht?,Je beoordeelt dit op een schaal van ‘Helemaal niet dominant’ tot ‘Zeer dominant’.,Helemaal niet dominant,Zeer dominant,stims/neutral_stims/id-1318_gender-M_age-35.png,35,M,,,,,,,,,,,,,,,,0,0,0,4,0,49,49,25,,,,,,,,,,,,,,,,,,,,,3,1.401,,,,,,,,,99,M,FALSE,FALSE,2018_okt_15_1409,pilot_RL,29.99706506
rating,dominance,Hoe dominant vind jij dit gezicht?,Je beoordeelt dit op een schaal van ‘Helemaal niet dominant’ tot ‘Zeer dominant’.,Helemaal niet dominant,Zeer dominant,,,,,,,,,,,,,,,,,,,0,0,0,4,,,,,,,,,,,,,,,,,,,,,,,,,,,,,,,,,,,99,M,FALSE,FALSE,2018_okt_15_1409,pilot_RL,29.99706506
rating,valence,Hoe ervaar jij dit gezicht?,Je beoordeelt dit op een schaal van ‘Zeer onprettig’ tot ‘Zeer prettig’.,Zeer onprettig,Zeer prettig,stims/neutral_stims/id-1311_gender-F_age-22.png,22,F,,,,,,,,,,,,,,,,0,1,1,0,0,0,0,23,,,,,,,,,,,,,,,,,,,,,2,3.601,,,,,,,,,99,M,FALSE,FALSE,2018_okt_15_1409,pilot_RL,29.99706506
rating,valence,Hoe ervaar jij dit gezicht?,Je beoordeelt dit op een schaal van ‘Zeer onprettig’ tot ‘Zeer prettig’.,Zeer onprettig,Zeer prettig,stims/neutral_stims/id-1367_gender-M_age-20.png,20,M,,,,,,,,,,,,,,,,0,1,1,0,0,1,1,43,,,,,,,,,,,,,,,,,,,,,1,1.001,,,,,,,,,99,M,FALSE,FALSE,2018_okt_15_1409,pilot_RL,29.99706506
rating,valence,Hoe ervaar jij dit gezicht?,Je beoordeelt dit op een schaal van ‘Zeer onprettig’ tot ‘Zeer prettig’.,Zeer onprettig,Zeer prettig,stims/neutral_stims/id-1260_gender-F_age-22.png,22,F,,,,,,,,,,,,,,,,0,1,1,0,0,2,2,0,,,,,,,,,,,,,,,,,,,,,-1,1.834,,,,,,,,,99,M,FALSE,FALSE,2018_okt_15_1409,pilot_RL,29.99706506
rating,valence,Hoe ervaar jij dit gezicht?,Je beoordeelt dit op een schaal van ‘Zeer onprettig’ tot ‘Zeer prettig’.,Zeer onprettig,Zeer prettig,stims/neutral_stims/id-1380_gender-F_age-21.png,21,F,,,,,,,,,,,,,,,,0,1,1,0,0,3,3,49,,,,,,,,,,,,,,,,,,,,,0,2.268,,,,,,,,,99,M,FALSE,FALSE,2018_okt_15_1409,pilot_RL,29.99706506
rating,valence,Hoe ervaar jij dit gezicht?,Je beoordeelt dit op een schaal van ‘Zeer onprettig’ tot ‘Zeer prettig’.,Zeer onprettig,Zeer prettig,stims/neutral_stims/id-1355_gender-F_age-19.png,19,F,,,,,,,,,,,,,,,,0,1,1,0,0,4,4,35,,,,,,,,,,,,,,,,,,,,,1,5.934,,,,,,,,,99,M,FALSE,FALSE,2018_okt_15_1409,pilot_RL,29.99706506
rating,valence,Hoe ervaar jij dit gezicht?,Je beoordeelt dit op een schaal van ‘Zeer onprettig’ tot ‘Zeer prettig’.,Zeer onprettig,Zeer prettig,stims/neutral_stims/id-1295_gender-F_age-26.png,26,F,,,,,,,,,,,,,,,,0,1,1,0,0,5,5,15,,,,,,,,,,,,,,,,,,,,,-2,1.734,,,,,,,,,99,M,FALSE,FALSE,2018_okt_15_1409,pilot_RL,29.99706506
rating,valence,Hoe ervaar jij dit gezicht?,Je beoordeelt dit op een schaal van ‘Zeer onprettig’ tot ‘Zeer prettig’.,Zeer onprettig,Zeer prettig,stims/neutral_stims/id-1360_gender-F_age-20.png,20,F,,,,,,,,,,,,,,,,0,1,1,0,0,6,6,38,,,,,,,,,,,,,,,,,,,,,-1,1.068,,,,,,,,,99,M,FALSE,FALSE,2018_okt_15_1409,pilot_RL,29.99706506
rating,valence,Hoe ervaar jij dit gezicht?,Je beoordeelt dit op een schaal van ‘Zeer onprettig’ tot ‘Zeer prettig’.,Zeer onprettig,Zeer prettig,stims/neutral_stims/id-1344_gender-M_age-25.png,25,M,,,,,,,,,,,,,,,,0,1,1,0,0,7,7,31,,,,,,,,,,,,,,,,,,,,,-2,1.068,,,,,,,,,99,M,FALSE,FALSE,2018_okt_15_1409,pilot_RL,29.99706506
rating,valence,Hoe ervaar jij dit gezicht?,Je beoordeelt dit op een schaal van ‘Zeer onprettig’ tot ‘Zeer prettig’.,Zeer onprettig,Zeer prettig,stims/neutral_stims/id-1373_gender-F_age-30.png,30,F,,,,,,,,,,,,,,,,0,1,1,0,0,8,8,45,,,,,,,,,,,,,,,,,,,,,0,0.901,,,,,,,,,99,M,FALSE,FALSE,2018_okt_15_1409,pilot_RL,29.99706506
rating,valence,Hoe ervaar jij dit gezicht?,Je beoordeelt dit op een schaal van ‘Zeer onprettig’ tot ‘Zeer prettig’.,Zeer onprettig,Zeer prettig,stims/neutral_stims/id-1294_gender-F_age-26.png,26,F,,,,,,,,,,,,,,,,0,1,1,0,0,9,9,14,,,,,,,,,,,,,,,,,,,,,1,0.899,,,,,,,,,99,M,FALSE,FALSE,2018_okt_15_1409,pilot_RL,29.99706506
rating,valence,Hoe ervaar jij dit gezicht?,Je beoordeelt dit op een schaal van ‘Zeer onprettig’ tot ‘Zeer prettig’.,Zeer onprettig,Zeer prettig,stims/neutral_stims/id-1307_gender-F_age-22.png,22,F,,,,,,,,,,,,,,,,0,1,1,0,0,10,10,20,,,,,,,,,,,,,,,,,,,,,1,1.3,,,,,,,,,99,M,FALSE,FALSE,2018_okt_15_1409,pilot_RL,29.99706506
rating,valence,Hoe ervaar jij dit gezicht?,Je beoordeelt dit op een schaal van ‘Zeer onprettig’ tot ‘Zeer prettig’.,Zeer onprettig,Zeer prettig,stims/neutral_stims/id-1335_gender-M_age-23.png,23,M,,,,,,,,,,,,,,,,0,1,1,0,0,11,11,27,,,,,,,,,,,,,,,,,,,,,1,0.868,,,,,,,,,99,M,FALSE,FALSE,2018_okt_15_1409,pilot_RL,29.99706506
rating,valence,Hoe ervaar jij dit gezicht?,Je beoordeelt dit op een schaal van ‘Zeer onprettig’ tot ‘Zeer prettig’.,Zeer onprettig,Zeer prettig,stims/neutral_stims/id-1354_gender-F_age-23.png,23,F,,,,,,,,,,,,,,,,0,1,1,0,0,12,12,34,,,,,,,,,,,,,,,,,,,,,-3,1.401,,,,,,,,,99,M,FALSE,FALSE,2018_okt_15_1409,pilot_RL,29.99706506
rating,valence,Hoe ervaar jij dit gezicht?,Je beoordeelt dit op een schaal van ‘Zeer onprettig’ tot ‘Zeer prettig’.,Zeer onprettig,Zeer prettig,stims/neutral_stims/id-1363_gender-M_age-19.png,19,M,,,,,,,,,,,,,,,,0,1,1,0,0,13,13,41,,,,,,,,,,,,,,,,,,,,,-1,1.934,,,,,,,,,99,M,FALSE,FALSE,2018_okt_15_1409,pilot_RL,29.99706506
rating,valence,Hoe ervaar jij dit gezicht?,Je beoordeelt dit op een schaal van ‘Zeer onprettig’ tot ‘Zeer prettig’.,Zeer onprettig,Zeer prettig,stims/neutral_stims/id-1309_gender-M_age-22.png,22,M,,,,,,,,,,,,,,,,0,1,1,0,0,14,14,21,,,,,,,,,,,,,,,,,,,,,-2,1.101,,,,,,,,,99,M,FALSE,FALSE,2018_okt_15_1409,pilot_RL,29.99706506
rating,valence,Hoe ervaar jij dit gezicht?,Je beoordeelt dit op een schaal van ‘Zeer onprettig’ tot ‘Zeer prettig’.,Zeer onprettig,Zeer prettig,stims/neutral_stims/id-1280_gender-M_age-18.png,18,M,,,,,,,,,,,,,,,,0,1,1,0,0,15,15,8,,,,,,,,,,,,,,,,,,,,,-3,1.999,,,,,,,,,99,M,FALSE,FALSE,2018_okt_15_1409,pilot_RL,29.99706506
rating,valence,Hoe ervaar jij dit gezicht?,Je beoordeelt dit op een schaal van ‘Zeer onprettig’ tot ‘Zeer prettig’.,Zeer onprettig,Zeer prettig,stims/neutral_stims/id-1376_gender-F_age-19.png,19,F,,,,,,,,,,,,,,,,0,1,1,0,0,16,16,46,,,,,,,,,,,,,,,,,,,,,1,7.266,,,,,,,,,99,M,FALSE,FALSE,2018_okt_15_1409,pilot_RL,29.99706506
rating,valence,Hoe ervaar jij dit gezicht?,Je beoordeelt dit op een schaal van ‘Zeer onprettig’ tot ‘Zeer prettig’.,Zeer onprettig,Zeer prettig,stims/neutral_stims/id-1266_gender-M_age-21.png,21,M,,,,,,,,,,,,,,,,0,1,1,0,0,17,17,2,,,,,,,,,,,,,,,,,,,,,2,1.334,,,,,,,,,99,M,FALSE,FALSE,2018_okt_15_1409,pilot_RL,29.99706506
rating,valence,Hoe ervaar jij dit gezicht?,Je beoordeelt dit op een schaal van ‘Zeer onprettig’ tot ‘Zeer prettig’.,Zeer onprettig,Zeer prettig,stims/neutral_stims/id-1339_gender-F_age-30.png,30,F,,,,,,,,,,,,,,,,0,1,1,0,0,18,18,28,,,,,,,,,,,,,,,,,,,,,1,1.234,,,,,,,,,99,M,FALSE,FALSE,2018_okt_15_1409,pilot_RL,29.99706506
rating,valence,Hoe ervaar jij dit gezicht?,Je beoordeelt dit op een schaal van ‘Zeer onprettig’ tot ‘Zeer prettig’.,Zeer onprettig,Zeer prettig,stims/neutral_stims/id-1270_gender-F_age-30.png,30,F,,,,,,,,,,,,,,,,0,1,1,0,0,19,19,4,,,,,,,,,,,,,,,,,,,,,1,1.068,,,,,,,,,99,M,FALSE,FALSE,2018_okt_15_1409,pilot_RL,29.99706506
rating,valence,Hoe ervaar jij dit gezicht?,Je beoordeelt dit op een schaal van ‘Zeer onprettig’ tot ‘Zeer prettig’.,Zeer onprettig,Zeer prettig,stims/neutral_stims/id-1362_gender-F_age-24.png,24,F,,,,,,,,,,,,,,,,0,1,1,0,0,20,20,40,,,,,,,,,,,,,,,,,,,,,0,1.434,,,,,,,,,99,M,FALSE,FALSE,2018_okt_15_1409,pilot_RL,29.99706506
rating,valence,Hoe ervaar jij dit gezicht?,Je beoordeelt dit op een schaal van ‘Zeer onprettig’ tot ‘Zeer prettig’.,Zeer onprettig,Zeer prettig,stims/neutral_stims/id-1318_gender-M_age-35.png,35,M,,,,,,,,,,,,,,,,0,1,1,0,0,21,21,25,,,,,,,,,,,,,,,,,,,,,-2,1.368,,,,,,,,,99,M,FALSE,FALSE,2018_okt_15_1409,pilot_RL,29.99706506
rating,valence,Hoe ervaar jij dit gezicht?,Je beoordeelt dit op een schaal van ‘Zeer onprettig’ tot ‘Zeer prettig’.,Zeer onprettig,Zeer prettig,stims/neutral_stims/id-1297_gender-F_age-22.png,22,F,,,,,,,,,,,,,,,,0,1,1,0,0,22,22,17,,,,,,,,,,,,,,,,,,,,,-2,1.801,,,,,,,,,99,M,FALSE,FALSE,2018_okt_15_1409,pilot_RL,29.99706506
rating,valence,Hoe ervaar jij dit gezicht?,Je beoordeelt dit op een schaal van ‘Zeer onprettig’ tot ‘Zeer prettig’.,Zeer onprettig,Zeer prettig,stims/neutral_stims/id-1290_gender-F_age-23.png,23,F,,,,,,,,,,,,,,,,0,1,1,0,0,23,23,11,,,,,,,,,,,,,,,,,,,,,0,3.101,,,,,,,,,99,M,FALSE,FALSE,2018_okt_15_1409,pilot_RL,29.99706506
rating,valence,Hoe ervaar jij dit gezicht?,Je beoordeelt dit op een schaal van ‘Zeer onprettig’ tot ‘Zeer prettig’.,Zeer onprettig,Zeer prettig,stims/neutral_stims/id-1306_gender-F_age-21.png,21,F,,,,,,,,,,,,,,,,0,1,1,0,0,24,24,19,,,,,,,,,,,,,,,,,,,,,1,1.501,,,,,,,,,99,M,FALSE,FALSE,2018_okt_15_1409,pilot_RL,29.99706506
rating,valence,Hoe ervaar jij dit gezicht?,Je beoordeelt dit op een schaal van ‘Zeer onprettig’ tot ‘Zeer prettig’.,Zeer onprettig,Zeer prettig,stims/neutral_stims/id-1378_gender-F_age-19.png,19,F,,,,,,,,,,,,,,,,0,1,1,0,0,25,25,48,,,,,,,,,,,,,,,,,,,,,2,0.968,,,,,,,,,99,M,FALSE,FALSE,2018_okt_15_1409,pilot_RL,29.99706506
rating,valence,Hoe ervaar jij dit gezicht?,Je beoordeelt dit op een schaal van ‘Zeer onprettig’ tot ‘Zeer prettig’.,Zeer onprettig,Zeer prettig,stims/neutral_stims/id-1341_gender-M_age-19.png,19,M,,,,,,,,,,,,,,,,0,1,1,0,0,26,26,29,,,,,,,,,,,,,,,,,,,,,1,1.068,,,,,,,,,99,M,FALSE,FALSE,2018_okt_15_1409,pilot_RL,29.99706506
rating,valence,Hoe ervaar jij dit gezicht?,Je beoordeelt dit op een schaal van ‘Zeer onprettig’ tot ‘Zeer prettig’.,Zeer onprettig,Zeer prettig,stims/neutral_stims/id-1358_gender-F_age-32.png,32,F,,,,,,,,,,,,,,,,0,1,1,0,0,27,27,37,,,,,,,,,,,,,,,,,,,,,1,1.033,,,,,,,,,99,M,FALSE,FALSE,2018_okt_15_1409,pilot_RL,29.99706506
rating,valence,Hoe ervaar jij dit gezicht?,Je beoordeelt dit op een schaal van ‘Zeer onprettig’ tot ‘Zeer prettig’.,Zeer onprettig,Zeer prettig,stims/neutral_stims/id-1291_gender-F_age-24.png,24,F,,,,,,,,,,,,,,,,0,1,1,0,0,28,28,12,,,,,,,,,,,,,,,,,,,,,-2,1.132,,,,,,,,,99,M,FALSE,FALSE,2018_okt_15_1409,pilot_RL,29.99706506
rating,valence,Hoe ervaar jij dit gezicht?,Je beoordeelt dit op een schaal van ‘Zeer onprettig’ tot ‘Zeer prettig’.,Zeer onprettig,Zeer prettig,stims/neutral_stims/id-1273_gender-F_age-20.png,20,F,,,,,,,,,,,,,,,,0,1,1,0,0,29,29,5,,,,,,,,,,,,,,,,,,,,,2,5.735,,,,,,,,,99,M,FALSE,FALSE,2018_okt_15_1409,pilot_RL,29.99706506
rating,valence,Hoe ervaar jij dit gezicht?,Je beoordeelt dit op een schaal van ‘Zeer onprettig’ tot ‘Zeer prettig’.,Zeer onprettig,Zeer prettig,stims/neutral_stims/id-1370_gender-M_age-19.png,19,M,,,,,,,,,,,,,,,,0,1,1,0,0,30,30,44,,,,,,,,,,,,,,,,,,,,,1,0.968,,,,,,,,,99,M,FALSE,FALSE,2018_okt_15_1409,pilot_RL,29.99706506
rating,valence,Hoe ervaar jij dit gezicht?,Je beoordeelt dit op een schaal van ‘Zeer onprettig’ tot ‘Zeer prettig’.,Zeer onprettig,Zeer prettig,stims/neutral_stims/id-1296_gender-F_age-23.png,23,F,,,,,,,,,,,,,,,,0,1,1,0,0,31,31,16,,,,,,,,,,,,,,,,,,,,,-1,1.001,,,,,,,,,99,M,FALSE,FALSE,2018_okt_15_1409,pilot_RL,29.99706506
rating,valence,Hoe ervaar jij dit gezicht?,Je beoordeelt dit op een schaal van ‘Zeer onprettig’ tot ‘Zeer prettig’.,Zeer onprettig,Zeer prettig,stims/neutral_stims/id-1345_gender-M_age-18.png,18,M,,,,,,,,,,,,,,,,0,1,1,0,0,32,32,32,,,,,,,,,,,,,,,,,,,,,-2,1.169,,,,,,,,,99,M,FALSE,FALSE,2018_okt_15_1409,pilot_RL,29.99706506
rating,valence,Hoe ervaar jij dit gezicht?,Je beoordeelt dit op een schaal van ‘Zeer onprettig’ tot ‘Zeer prettig’.,Zeer onprettig,Zeer prettig,stims/neutral_stims/id-1366_gender-F_age-24.png,24,F,,,,,,,,,,,,,,,,0,1,1,0,0,33,33,42,,,,,,,,,,,,,,,,,,,,,2,1.601,,,,,,,,,99,M,FALSE,FALSE,2018_okt_15_1409,pilot_RL,29.99706506
rating,valence,Hoe ervaar jij dit gezicht?,Je beoordeelt dit op een schaal van ‘Zeer onprettig’ tot ‘Zeer prettig’.,Zeer onprettig,Zeer prettig,stims/neutral_stims/id-1293_gender-F_age-31.png,31,F,,,,,,,,,,,,,,,,0,1,1,0,0,34,34,13,,,,,,,,,,,,,,,,,,,,,-1,1.733,,,,,,,,,99,M,FALSE,FALSE,2018_okt_15_1409,pilot_RL,29.99706506
rating,valence,Hoe ervaar jij dit gezicht?,Je beoordeelt dit op een schaal van ‘Zeer onprettig’ tot ‘Zeer prettig’.,Zeer onprettig,Zeer prettig,stims/neutral_stims/id-1315_gender-M_age-16.png,16,M,,,,,,,,,,,,,,,,0,1,1,0,0,35,35,24,,,,,,,,,,,,,,,,,,,,,1,1.001,,,,,,,,,99,M,FALSE,FALSE,2018_okt_15_1409,pilot_RL,29.99706506
rating,valence,Hoe ervaar jij dit gezicht?,Je beoordeelt dit op een schaal van ‘Zeer onprettig’ tot ‘Zeer prettig’.,Zeer onprettig,Zeer prettig,stims/neutral_stims/id-1377_gender-M_age-20.png,20,M,,,,,,,,,,,,,,,,0,1,1,0,0,36,36,47,,,,,,,,,,,,,,,,,,,,,0,0.901,,,,,,,,,99,M,FALSE,FALSE,2018_okt_15_1409,pilot_RL,29.99706506
rating,valence,Hoe ervaar jij dit gezicht?,Je beoordeelt dit op een schaal van ‘Zeer onprettig’ tot ‘Zeer prettig’.,Zeer onprettig,Zeer prettig,stims/neutral_stims/id-1274_gender-F_age-33.png,33,F,,,,,,,,,,,,,,,,0,1,1,0,0,37,37,6,,,,,,,,,,,,,,,,,,,,,-2,1.268,,,,,,,,,99,M,FALSE,FALSE,2018_okt_15_1409,pilot_RL,29.99706506
rating,valence,Hoe ervaar jij dit gezicht?,Je beoordeelt dit op een schaal van ‘Zeer onprettig’ tot ‘Zeer prettig’.,Zeer onprettig,Zeer prettig,stims/neutral_stims/id-1269_gender-F_age-23.png,23,F,,,,,,,,,,,,,,,,0,1,1,0,0,38,38,3,,,,,,,,,,,,,,,,,,,,,-2,1.034,,,,,,,,,99,M,FALSE,FALSE,2018_okt_15_1409,pilot_RL,29.99706506
rating,valence,Hoe ervaar jij dit gezicht?,Je beoordeelt dit op een schaal van ‘Zeer onprettig’ tot ‘Zeer prettig’.,Zeer onprettig,Zeer prettig,stims/neutral_stims/id-1356_gender-F_age-20.png,20,F,,,,,,,,,,,,,,,,0,1,1,0,0,39,39,36,,,,,,,,,,,,,,,,,,,,,2,1.034,,,,,,,,,99,M,FALSE,FALSE,2018_okt_15_1409,pilot_RL,29.99706506
rating,valence,Hoe ervaar jij dit gezicht?,Je beoordeelt dit op een schaal van ‘Zeer onprettig’ tot ‘Zeer prettig’.,Zeer onprettig,Zeer prettig,stims/neutral_stims/id-1310_gender-F_age-28.png,28,F,,,,,,,,,,,,,,,,0,1,1,0,0,40,40,22,,,,,,,,,,,,,,,,,,,,,-2,1.069,,,,,,,,,99,M,FALSE,FALSE,2018_okt_15_1409,pilot_RL,29.99706506
rating,valence,Hoe ervaar jij dit gezicht?,Je beoordeelt dit op een schaal van ‘Zeer onprettig’ tot ‘Zeer prettig’.,Zeer onprettig,Zeer prettig,stims/neutral_stims/id-1347_gender-F_age-27.png,27,F,,,,,,,,,,,,,,,,0,1,1,0,0,41,41,33,,,,,,,,,,,,,,,,,,,,,-1,1.734,,,,,,,,,99,M,FALSE,FALSE,2018_okt_15_1409,pilot_RL,29.99706506
rating,valence,Hoe ervaar jij dit gezicht?,Je beoordeelt dit op een schaal van ‘Zeer onprettig’ tot ‘Zeer prettig’.,Zeer onprettig,Zeer prettig,stims/neutral_stims/id-1279_gender-F_age-19.png,19,F,,,,,,,,,,,,,,,,0,1,1,0,0,42,42,7,,,,,,,,,,,,,,,,,,,,,1,1.033,,,,,,,,,99,M,FALSE,FALSE,2018_okt_15_1409,pilot_RL,29.99706506
rating,valence,Hoe ervaar jij dit gezicht?,Je beoordeelt dit op een schaal van ‘Zeer onprettig’ tot ‘Zeer prettig’.,Zeer onprettig,Zeer prettig,stims/neutral_stims/id-1342_gender-M_age-19.png,19,M,,,,,,,,,,,,,,,,0,1,1,0,0,43,43,30,,,,,,,,,,,,,,,,,,,,,-2,1.969,,,,,,,,,99,M,FALSE,FALSE,2018_okt_15_1409,pilot_RL,29.99706506
rating,valence,Hoe ervaar jij dit gezicht?,Je beoordeelt dit op een schaal van ‘Zeer onprettig’ tot ‘Zeer prettig’.,Zeer onprettig,Zeer prettig,stims/neutral_stims/id-1302_gender-F_age-30.png,30,F,,,,,,,,,,,,,,,,0,1,1,0,0,44,44,18,,,,,,,,,,,,,,,,,,,,,0,0.868,,,,,,,,,99,M,FALSE,FALSE,2018_okt_15_1409,pilot_RL,29.99706506
rating,valence,Hoe ervaar jij dit gezicht?,Je beoordeelt dit op een schaal van ‘Zeer onprettig’ tot ‘Zeer prettig’.,Zeer onprettig,Zeer prettig,stims/neutral_stims/id-1264_gender-F_age-26.png,26,F,,,,,,,,,,,,,,,,0,1,1,0,0,45,45,1,,,,,,,,,,,,,,,,,,,,,-1,1.068,,,,,,,,,99,M,FALSE,FALSE,2018_okt_15_1409,pilot_RL,29.99706506
rating,valence,Hoe ervaar jij dit gezicht?,Je beoordeelt dit op een schaal van ‘Zeer onprettig’ tot ‘Zeer prettig’.,Zeer onprettig,Zeer prettig,stims/neutral_stims/id-1361_gender-F_age-19.png,19,F,,,,,,,,,,,,,,,,0,1,1,0,0,46,46,39,,,,,,,,,,,,,,,,,,,,,0,1.201,,,,,,,,,99,M,FALSE,FALSE,2018_okt_15_1409,pilot_RL,29.99706506
rating,valence,Hoe ervaar jij dit gezicht?,Je beoordeelt dit op een schaal van ‘Zeer onprettig’ tot ‘Zeer prettig’.,Zeer onprettig,Zeer prettig,stims/neutral_stims/id-1285_gender-F_age-19.png,19,F,,,,,,,,,,,,,,,,0,1,1,0,0,47,47,9,,,,,,,,,,,,,,,,,,,,,0,1.301,,,,,,,,,99,M,FALSE,FALSE,2018_okt_15_1409,pilot_RL,29.99706506
rating,valence,Hoe ervaar jij dit gezicht?,Je beoordeelt dit op een schaal van ‘Zeer onprettig’ tot ‘Zeer prettig’.,Zeer onprettig,Zeer prettig,stims/neutral_stims/id-1289_gender-F_age-20.png,20,F,,,,,,,,,,,,,,,,0,1,1,0,0,48,48,10,,,,,,,,,,,,,,,,,,,,,-1,1.168,,,,,,,,,99,M,FALSE,FALSE,2018_okt_15_1409,pilot_RL,29.99706506
rating,valence,Hoe ervaar jij dit gezicht?,Je beoordeelt dit op een schaal van ‘Zeer onprettig’ tot ‘Zeer prettig’.,Zeer onprettig,Zeer prettig,stims/neutral_stims/id-1323_gender-F_age-23.png,23,F,,,,,,,,,,,,,,,,0,1,1,0,0,49,49,26,,,,,,,,,,,,,,,,,,,,,-1,4.568,,,,,,,,,99,M,FALSE,FALSE,2018_okt_15_1409,pilot_RL,29.99706506
rating,valence,Hoe ervaar jij dit gezicht?,Je beoordeelt dit op een schaal van ‘Zeer onprettig’ tot ‘Zeer prettig’.,Zeer onprettig,Zeer prettig,,,,,,,,,,,,,,,,,,,0,1,1,0,,,,,,,,,,,,,,,,,,,,,,,,,,,,,,,,,,,99,M,FALSE,FALSE,2018_okt_15_1409,pilot_RL,29.99706506
rating,attractiveness,Hoe aantrekkelijk vind jij dit gezicht?,Je beoordeelt dit op een schaal van ‘Zeer onaantrekkelijk’ tot ‘Zeer aantrekkelijk’.,Zeer onaantrekkelijk,Zeer aantrekkelijk,stims/neutral_stims/id-1274_gender-F_age-33.png,33,F,,,,,,,,,,,,,,,,0,2,2,2,0,0,0,6,,,,,,,,,,,,,,,,,,,,,-3,2.201,,,,,,,,,99,M,FALSE,FALSE,2018_okt_15_1409,pilot_RL,29.99706506
rating,attractiveness,Hoe aantrekkelijk vind jij dit gezicht?,Je beoordeelt dit op een schaal van ‘Zeer onaantrekkelijk’ tot ‘Zeer aantrekkelijk’.,Zeer onaantrekkelijk,Zeer aantrekkelijk,stims/neutral_stims/id-1367_gender-M_age-20.png,20,M,,,,,,,,,,,,,,,,0,2,2,2,0,1,1,43,,,,,,,,,,,,,,,,,,,,,2,1.337,,,,,,,,,99,M,FALSE,FALSE,2018_okt_15_1409,pilot_RL,29.99706506
rating,attractiveness,Hoe aantrekkelijk vind jij dit gezicht?,Je beoordeelt dit op een schaal van ‘Zeer onaantrekkelijk’ tot ‘Zeer aantrekkelijk’.,Zeer onaantrekkelijk,Zeer aantrekkelijk,stims/neutral_stims/id-1335_gender-M_age-23.png,23,M,,,,,,,,,,,,,,,,0,2,2,2,0,2,2,27,,,,,,,,,,,,,,,,,,,,,1,1.168,,,,,,,,,99,M,FALSE,FALSE,2018_okt_15_1409,pilot_RL,29.99706506
rating,attractiveness,Hoe aantrekkelijk vind jij dit gezicht?,Je beoordeelt dit op een schaal van ‘Zeer onaantrekkelijk’ tot ‘Zeer aantrekkelijk’.,Zeer onaantrekkelijk,Zeer aantrekkelijk,stims/neutral_stims/id-1297_gender-F_age-22.png,22,F,,,,,,,,,,,,,,,,0,2,2,2,0,3,3,17,,,,,,,,,,,,,,,,,,,,,-2,2.234,,,,,,,,,99,M,FALSE,FALSE,2018_okt_15_1409,pilot_RL,29.99706506
rating,attractiveness,Hoe aantrekkelijk vind jij dit gezicht?,Je beoordeelt dit op een schaal van ‘Zeer onaantrekkelijk’ tot ‘Zeer aantrekkelijk’.,Zeer onaantrekkelijk,Zeer aantrekkelijk,stims/neutral_stims/id-1362_gender-F_age-24.png,24,F,,,,,,,,,,,,,,,,0,2,2,2,0,4,4,40,,,,,,,,,,,,,,,,,,,,,0,0.769,,,,,,,,,99,M,FALSE,FALSE,2018_okt_15_1409,pilot_RL,29.99706506
rating,attractiveness,Hoe aantrekkelijk vind jij dit gezicht?,Je beoordeelt dit op een schaal van ‘Zeer onaantrekkelijk’ tot ‘Zeer aantrekkelijk’.,Zeer onaantrekkelijk,Zeer aantrekkelijk,stims/neutral_stims/id-1361_gender-F_age-19.png,19,F,,,,,,,,,,,,,,,,0,2,2,2,0,5,5,39,,,,,,,,,,,,,,,,,,,,,3,1.601,,,,,,,,,99,M,FALSE,FALSE,2018_okt_15_1409,pilot_RL,29.99706506
rating,attractiveness,Hoe aantrekkelijk vind jij dit gezicht?,Je beoordeelt dit op een schaal van ‘Zeer onaantrekkelijk’ tot ‘Zeer aantrekkelijk’.,Zeer onaantrekkelijk,Zeer aantrekkelijk,stims/neutral_stims/id-1356_gender-F_age-20.png,20,F,,,,,,,,,,,,,,,,0,2,2,2,0,6,6,36,,,,,,,,,,,,,,,,,,,,,2,2.568,,,,,,,,,99,M,FALSE,FALSE,2018_okt_15_1409,pilot_RL,29.99706506
rating,attractiveness,Hoe aantrekkelijk vind jij dit gezicht?,Je beoordeelt dit op een schaal van ‘Zeer onaantrekkelijk’ tot ‘Zeer aantrekkelijk’.,Zeer onaantrekkelijk,Zeer aantrekkelijk,stims/neutral_stims/id-1323_gender-F_age-23.png,23,F,,,,,,,,,,,,,,,,0,2,2,2,0,7,7,26,,,,,,,,,,,,,,,,,,,,,-1,1.101,,,,,,,,,99,M,FALSE,FALSE,2018_okt_15_1409,pilot_RL,29.99706506
rating,attractiveness,Hoe aantrekkelijk vind jij dit gezicht?,Je beoordeelt dit op een schaal van ‘Zeer onaantrekkelijk’ tot ‘Zeer aantrekkelijk’.,Zeer onaantrekkelijk,Zeer aantrekkelijk,stims/neutral_stims/id-1373_gender-F_age-30.png,30,F,,,,,,,,,,,,,,,,0,2,2,2,0,8,8,45,,,,,,,,,,,,,,,,,,,,,0,0.801,,,,,,,,,99,M,FALSE,FALSE,2018_okt_15_1409,pilot_RL,29.99706506
rating,attractiveness,Hoe aantrekkelijk vind jij dit gezicht?,Je beoordeelt dit op een schaal van ‘Zeer onaantrekkelijk’ tot ‘Zeer aantrekkelijk’.,Zeer onaantrekkelijk,Zeer aantrekkelijk,stims/neutral_stims/id-1366_gender-F_age-24.png,24,F,,,,,,,,,,,,,,,,0,2,2,2,0,9,9,42,,,,,,,,,,,,,,,,,,,,,2,1.235,,,,,,,,,99,M,FALSE,FALSE,2018_okt_15_1409,pilot_RL,29.99706506
rating,attractiveness,Hoe aantrekkelijk vind jij dit gezicht?,Je beoordeelt dit op een schaal van ‘Zeer onaantrekkelijk’ tot ‘Zeer aantrekkelijk’.,Zeer onaantrekkelijk,Zeer aantrekkelijk,stims/neutral_stims/id-1311_gender-F_age-22.png,22,F,,,,,,,,,,,,,,,,0,2,2,2,0,10,10,23,,,,,,,,,,,,,,,,,,,,,1,0.933,,,,,,,,,99,M,FALSE,FALSE,2018_okt_15_1409,pilot_RL,29.99706506
rating,attractiveness,Hoe aantrekkelijk vind jij dit gezicht?,Je beoordeelt dit op een schaal van ‘Zeer onaantrekkelijk’ tot ‘Zeer aantrekkelijk’.,Zeer onaantrekkelijk,Zeer aantrekkelijk,stims/neutral_stims/id-1279_gender-F_age-19.png,19,F,,,,,,,,,,,,,,,,0,2,2,2,0,11,11,7,,,,,,,,,,,,,,,,,,,,,1,0.934,,,,,,,,,99,M,FALSE,FALSE,2018_okt_15_1409,pilot_RL,29.99706506
rating,attractiveness,Hoe aantrekkelijk vind jij dit gezicht?,Je beoordeelt dit op een schaal van ‘Zeer onaantrekkelijk’ tot ‘Zeer aantrekkelijk’.,Zeer onaantrekkelijk,Zeer aantrekkelijk,stims/neutral_stims/id-1291_gender-F_age-24.png,24,F,,,,,,,,,,,,,,,,0,2,2,2,0,12,12,12,,,,,,,,,,,,,,,,,,,,,0,2.768,,,,,,,,,99,M,FALSE,FALSE,2018_okt_15_1409,pilot_RL,29.99706506
rating,attractiveness,Hoe aantrekkelijk vind jij dit gezicht?,Je beoordeelt dit op een schaal van ‘Zeer onaantrekkelijk’ tot ‘Zeer aantrekkelijk’.,Zeer onaantrekkelijk,Zeer aantrekkelijk,stims/neutral_stims/id-1345_gender-M_age-18.png,18,M,,,,,,,,,,,,,,,,0,2,2,2,0,13,13,32,,,,,,,,,,,,,,,,,,,,,0,1.701,,,,,,,,,99,M,FALSE,FALSE,2018_okt_15_1409,pilot_RL,29.99706506
rating,attractiveness,Hoe aantrekkelijk vind jij dit gezicht?,Je beoordeelt dit op een schaal van ‘Zeer onaantrekkelijk’ tot ‘Zeer aantrekkelijk’.,Zeer onaantrekkelijk,Zeer aantrekkelijk,stims/neutral_stims/id-1285_gender-F_age-19.png,19,F,,,,,,,,,,,,,,,,0,2,2,2,0,14,14,9,,,,,,,,,,,,,,,,,,,,,1,1.001,,,,,,,,,99,M,FALSE,FALSE,2018_okt_15_1409,pilot_RL,29.99706506
rating,attractiveness,Hoe aantrekkelijk vind jij dit gezicht?,Je beoordeelt dit op een schaal van ‘Zeer onaantrekkelijk’ tot ‘Zeer aantrekkelijk’.,Zeer onaantrekkelijk,Zeer aantrekkelijk,stims/neutral_stims/id-1294_gender-F_age-26.png,26,F,,,,,,,,,,,,,,,,0,2,2,2,0,15,15,14,,,,,,,,,,,,,,,,,,,,,2,1.068,,,,,,,,,99,M,FALSE,FALSE,2018_okt_15_1409,pilot_RL,29.99706506
rating,attractiveness,Hoe aantrekkelijk vind jij dit gezicht?,Je beoordeelt dit op een schaal van ‘Zeer onaantrekkelijk’ tot ‘Zeer aantrekkelijk’.,Zeer onaantrekkelijk,Zeer aantrekkelijk,stims/neutral_stims/id-1315_gender-M_age-16.png,16,M,,,,,,,,,,,,,,,,0,2,2,2,0,16,16,24,,,,,,,,,,,,,,,,,,,,,1,4.668,,,,,,,,,99,M,FALSE,FALSE,2018_okt_15_1409,pilot_RL,29.99706506
rating,attractiveness,Hoe aantrekkelijk vind jij dit gezicht?,Je beoordeelt dit op een schaal van ‘Zeer onaantrekkelijk’ tot ‘Zeer aantrekkelijk’.,Zeer onaantrekkelijk,Zeer aantrekkelijk,stims/neutral_stims/id-1377_gender-M_age-20.png,20,M,,,,,,,,,,,,,,,,0,2,2,2,0,17,17,47,,,,,,,,,,,,,,,,,,,,,0,1.001,,,,,,,,,99,M,FALSE,FALSE,2018_okt_15_1409,pilot_RL,29.99706506
rating,attractiveness,Hoe aantrekkelijk vind jij dit gezicht?,Je beoordeelt dit op een schaal van ‘Zeer onaantrekkelijk’ tot ‘Zeer aantrekkelijk’.,Zeer onaantrekkelijk,Zeer aantrekkelijk,stims/neutral_stims/id-1293_gender-F_age-31.png,31,F,,,,,,,,,,,,,,,,0,2,2,2,0,18,18,13,,,,,,,,,,,,,,,,,,,,,-1,1.234,,,,,,,,,99,M,FALSE,FALSE,2018_okt_15_1409,pilot_RL,29.99706506
rating,attractiveness,Hoe aantrekkelijk vind jij dit gezicht?,Je beoordeelt dit op een schaal van ‘Zeer onaantrekkelijk’ tot ‘Zeer aantrekkelijk’.,Zeer onaantrekkelijk,Zeer aantrekkelijk,stims/neutral_stims/id-1339_gender-F_age-30.png,30,F,,,,,,,,,,,,,,,,0,2,2,2,0,19,19,28,,,,,,,,,,,,,,,,,,,,,1,0.934,,,,,,,,,99,M,FALSE,FALSE,2018_okt_15_1409,pilot_RL,29.99706506
rating,attractiveness,Hoe aantrekkelijk vind jij dit gezicht?,Je beoordeelt dit op een schaal van ‘Zeer onaantrekkelijk’ tot ‘Zeer aantrekkelijk’.,Zeer onaantrekkelijk,Zeer aantrekkelijk,stims/neutral_stims/id-1280_gender-M_age-18.png,18,M,,,,,,,,,,,,,,,,0,2,2,2,0,20,20,8,,,,,,,,,,,,,,,,,,,,,-2,1.001,,,,,,,,,99,M,FALSE,FALSE,2018_okt_15_1409,pilot_RL,29.99706506
rating,attractiveness,Hoe aantrekkelijk vind jij dit gezicht?,Je beoordeelt dit op een schaal van ‘Zeer onaantrekkelijk’ tot ‘Zeer aantrekkelijk’.,Zeer onaantrekkelijk,Zeer aantrekkelijk,stims/neutral_stims/id-1318_gender-M_age-35.png,35,M,,,,,,,,,,,,,,,,0,2,2,2,0,21,21,25,,,,,,,,,,,,,,,,,,,,,0,2.032,,,,,,,,,99,M,FALSE,FALSE,2018_okt_15_1409,pilot_RL,29.99706506
rating,attractiveness,Hoe aantrekkelijk vind jij dit gezicht?,Je beoordeelt dit op een schaal van ‘Zeer onaantrekkelijk’ tot ‘Zeer aantrekkelijk’.,Zeer onaantrekkelijk,Zeer aantrekkelijk,stims/neutral_stims/id-1264_gender-F_age-26.png,26,F,,,,,,,,,,,,,,,,0,2,2,2,0,22,22,1,,,,,,,,,,,,,,,,,,,,,-2,1.801,,,,,,,,,99,M,FALSE,FALSE,2018_okt_15_1409,pilot_RL,29.99706506
rating,attractiveness,Hoe aantrekkelijk vind jij dit gezicht?,Je beoordeelt dit op een schaal van ‘Zeer onaantrekkelijk’ tot ‘Zeer aantrekkelijk’.,Zeer onaantrekkelijk,Zeer aantrekkelijk,stims/neutral_stims/id-1273_gender-F_age-20.png,20,F,,,,,,,,,,,,,,,,0,2,2,2,0,23,23,5,,,,,,,,,,,,,,,,,,,,,3,2.568,,,,,,,,,99,M,FALSE,FALSE,2018_okt_15_1409,pilot_RL,29.99706506
rating,attractiveness,Hoe aantrekkelijk vind jij dit gezicht?,Je beoordeelt dit op een schaal van ‘Zeer onaantrekkelijk’ tot ‘Zeer aantrekkelijk’.,Zeer onaantrekkelijk,Zeer aantrekkelijk,stims/neutral_stims/id-1296_gender-F_age-23.png,23,F,,,,,,,,,,,,,,,,0,2,2,2,0,24,24,16,,,,,,,,,,,,,,,,,,,,,-1,0.934,,,,,,,,,99,M,FALSE,FALSE,2018_okt_15_1409,pilot_RL,29.99706506
rating,attractiveness,Hoe aantrekkelijk vind jij dit gezicht?,Je beoordeelt dit op een schaal van ‘Zeer onaantrekkelijk’ tot ‘Zeer aantrekkelijk’.,Zeer onaantrekkelijk,Zeer aantrekkelijk,stims/neutral_stims/id-1295_gender-F_age-26.png,26,F,,,,,,,,,,,,,,,,0,2,2,2,0,25,25,15,,,,,,,,,,,,,,,,,,,,,-1,1.034,,,,,,,,,99,M,FALSE,FALSE,2018_okt_15_1409,pilot_RL,29.99706506
rating,attractiveness,Hoe aantrekkelijk vind jij dit gezicht?,Je beoordeelt dit op een schaal van ‘Zeer onaantrekkelijk’ tot ‘Zeer aantrekkelijk’.,Zeer onaantrekkelijk,Zeer aantrekkelijk,stims/neutral_stims/id-1376_gender-F_age-19.png,19,F,,,,,,,,,,,,,,,,0,2,2,2,0,26,26,46,,,,,,,,,,,,,,,,,,,,,0,1.334,,,,,,,,,99,M,FALSE,FALSE,2018_okt_15_1409,pilot_RL,29.99706506
rating,attractiveness,Hoe aantrekkelijk vind jij dit gezicht?,Je beoordeelt dit op een schaal van ‘Zeer onaantrekkelijk’ tot ‘Zeer aantrekkelijk’.,Zeer onaantrekkelijk,Zeer aantrekkelijk,stims/neutral_stims/id-1302_gender-F_age-30.png,30,F,,,,,,,,,,,,,,,,0,2,2,2,0,27,27,18,,,,,,,,,,,,,,,,,,,,,-1,0.868,,,,,,,,,99,M,FALSE,FALSE,2018_okt_15_1409,pilot_RL,29.99706506
rating,attractiveness,Hoe aantrekkelijk vind jij dit gezicht?,Je beoordeelt dit op een schaal van ‘Zeer onaantrekkelijk’ tot ‘Zeer aantrekkelijk’.,Zeer onaantrekkelijk,Zeer aantrekkelijk,stims/neutral_stims/id-1310_gender-F_age-28.png,28,F,,,,,,,,,,,,,,,,0,2,2,2,0,28,28,22,,,,,,,,,,,,,,,,,,,,,0,1.701,,,,,,,,,99,M,FALSE,FALSE,2018_okt_15_1409,pilot_RL,29.99706506
rating,attractiveness,Hoe aantrekkelijk vind jij dit gezicht?,Je beoordeelt dit op een schaal van ‘Zeer onaantrekkelijk’ tot ‘Zeer aantrekkelijk’.,Zeer onaantrekkelijk,Zeer aantrekkelijk,stims/neutral_stims/id-1358_gender-F_age-32.png,32,F,,,,,,,,,,,,,,,,0,2,2,2,0,29,29,37,,,,,,,,,,,,,,,,,,,,,2,1.366,,,,,,,,,99,M,FALSE,FALSE,2018_okt_15_1409,pilot_RL,29.99706506
rating,attractiveness,Hoe aantrekkelijk vind jij dit gezicht?,Je beoordeelt dit op een schaal van ‘Zeer onaantrekkelijk’ tot ‘Zeer aantrekkelijk’.,Zeer onaantrekkelijk,Zeer aantrekkelijk,stims/neutral_stims/id-1290_gender-F_age-23.png,23,F,,,,,,,,,,,,,,,,0,2,2,2,0,30,30,11,,,,,,,,,,,,,,,,,,,,,1,1.37,,,,,,,,,99,M,FALSE,FALSE,2018_okt_15_1409,pilot_RL,29.99706506
rating,attractiveness,Hoe aantrekkelijk vind jij dit gezicht?,Je beoordeelt dit op een schaal van ‘Zeer onaantrekkelijk’ tot ‘Zeer aantrekkelijk’.,Zeer onaantrekkelijk,Zeer aantrekkelijk,stims/neutral_stims/id-1380_gender-F_age-21.png,21,F,,,,,,,,,,,,,,,,0,2,2,2,0,31,31,49,,,,,,,,,,,,,,,,,,,,,0,1.434,,,,,,,,,99,M,FALSE,FALSE,2018_okt_15_1409,pilot_RL,29.99706506
rating,attractiveness,Hoe aantrekkelijk vind jij dit gezicht?,Je beoordeelt dit op een schaal van ‘Zeer onaantrekkelijk’ tot ‘Zeer aantrekkelijk’.,Zeer onaantrekkelijk,Zeer aantrekkelijk,stims/neutral_stims/id-1266_gender-M_age-21.png,21,M,,,,,,,,,,,,,,,,0,2,2,2,0,32,32,2,,,,,,,,,,,,,,,,,,,,,2,1.166,,,,,,,,,99,M,FALSE,FALSE,2018_okt_15_1409,pilot_RL,29.99706506
rating,attractiveness,Hoe aantrekkelijk vind jij dit gezicht?,Je beoordeelt dit op een schaal van ‘Zeer onaantrekkelijk’ tot ‘Zeer aantrekkelijk’.,Zeer onaantrekkelijk,Zeer aantrekkelijk,stims/neutral_stims/id-1306_gender-F_age-21.png,21,F,,,,,,,,,,,,,,,,0,2,2,2,0,33,33,19,,,,,,,,,,,,,,,,,,,,,0,1.568,,,,,,,,,99,M,FALSE,FALSE,2018_okt_15_1409,pilot_RL,29.99706506
rating,attractiveness,Hoe aantrekkelijk vind jij dit gezicht?,Je beoordeelt dit op een schaal van ‘Zeer onaantrekkelijk’ tot ‘Zeer aantrekkelijk’.,Zeer onaantrekkelijk,Zeer aantrekkelijk,stims/neutral_stims/id-1347_gender-F_age-27.png,27,F,,,,,,,,,,,,,,,,0,2,2,2,0,34,34,33,,,,,,,,,,,,,,,,,,,,,-2,1.101,,,,,,,,,99,M,FALSE,FALSE,2018_okt_15_1409,pilot_RL,29.99706506
rating,attractiveness,Hoe aantrekkelijk vind jij dit gezicht?,Je beoordeelt dit op een schaal van ‘Zeer onaantrekkelijk’ tot ‘Zeer aantrekkelijk’.,Zeer onaantrekkelijk,Zeer aantrekkelijk,stims/neutral_stims/id-1341_gender-M_age-19.png,19,M,,,,,,,,,,,,,,,,0,2,2,2,0,35,35,29,,,,,,,,,,,,,,,,,,,,,1,1.136,,,,,,,,,99,M,FALSE,FALSE,2018_okt_15_1409,pilot_RL,29.99706506
rating,attractiveness,Hoe aantrekkelijk vind jij dit gezicht?,Je beoordeelt dit op een schaal van ‘Zeer onaantrekkelijk’ tot ‘Zeer aantrekkelijk’.,Zeer onaantrekkelijk,Zeer aantrekkelijk,stims/neutral_stims/id-1355_gender-F_age-19.png,19,F,,,,,,,,,,,,,,,,0,2,2,2,0,36,36,35,,,,,,,,,,,,,,,,,,,,,1,1.268,,,,,,,,,99,M,FALSE,FALSE,2018_okt_15_1409,pilot_RL,29.99706506
rating,attractiveness,Hoe aantrekkelijk vind jij dit gezicht?,Je beoordeelt dit op een schaal van ‘Zeer onaantrekkelijk’ tot ‘Zeer aantrekkelijk’.,Zeer onaantrekkelijk,Zeer aantrekkelijk,stims/neutral_stims/id-1269_gender-F_age-23.png,23,F,,,,,,,,,,,,,,,,0,2,2,2,0,37,37,3,,,,,,,,,,,,,,,,,,,,,1,1.468,,,,,,,,,99,M,FALSE,FALSE,2018_okt_15_1409,pilot_RL,29.99706506
rating,attractiveness,Hoe aantrekkelijk vind jij dit gezicht?,Je beoordeelt dit op een schaal van ‘Zeer onaantrekkelijk’ tot ‘Zeer aantrekkelijk’.,Zeer onaantrekkelijk,Zeer aantrekkelijk,stims/neutral_stims/id-1270_gender-F_age-30.png,30,F,,,,,,,,,,,,,,,,0,2,2,2,0,38,38,4,,,,,,,,,,,,,,,,,,,,,1,0.903,,,,,,,,,99,M,FALSE,FALSE,2018_okt_15_1409,pilot_RL,29.99706506
rating,attractiveness,Hoe aantrekkelijk vind jij dit gezicht?,Je beoordeelt dit op een schaal van ‘Zeer onaantrekkelijk’ tot ‘Zeer aantrekkelijk’.,Zeer onaantrekkelijk,Zeer aantrekkelijk,stims/neutral_stims/id-1289_gender-F_age-20.png,20,F,,,,,,,,,,,,,,,,0,2,2,2,0,39,39,10,,,,,,,,,,,,,,,,,,,,,-1,1.133,,,,,,,,,99,M,FALSE,FALSE,2018_okt_15_1409,pilot_RL,29.99706506
rating,attractiveness,Hoe aantrekkelijk vind jij dit gezicht?,Je beoordeelt dit op een schaal van ‘Zeer onaantrekkelijk’ tot ‘Zeer aantrekkelijk’.,Zeer onaantrekkelijk,Zeer aantrekkelijk,stims/neutral_stims/id-1378_gender-F_age-19.png,19,F,,,,,,,,,,,,,,,,0,2,2,2,0,40,40,48,,,,,,,,,,,,,,,,,,,,,2,1.835,,,,,,,,,99,M,FALSE,FALSE,2018_okt_15_1409,pilot_RL,29.99706506
rating,attractiveness,Hoe aantrekkelijk vind jij dit gezicht?,Je beoordeelt dit op een schaal van ‘Zeer onaantrekkelijk’ tot ‘Zeer aantrekkelijk’.,Zeer onaantrekkelijk,Zeer aantrekkelijk,stims/neutral_stims/id-1360_gender-F_age-20.png,20,F,,,,,,,,,,,,,,,,0,2,2,2,0,41,41,38,,,,,,,,,,,,,,,,,,,,,-1,2.101,,,,,,,,,99,M,FALSE,FALSE,2018_okt_15_1409,pilot_RL,29.99706506
rating,attractiveness,Hoe aantrekkelijk vind jij dit gezicht?,Je beoordeelt dit op een schaal van ‘Zeer onaantrekkelijk’ tot ‘Zeer aantrekkelijk’.,Zeer onaantrekkelijk,Zeer aantrekkelijk,stims/neutral_stims/id-1260_gender-F_age-22.png,22,F,,,,,,,,,,,,,,,,0,2,2,2,0,42,42,0,,,,,,,,,,,,,,,,,,,,,2,1.168,,,,,,,,,99,M,FALSE,FALSE,2018_okt_15_1409,pilot_RL,29.99706506
rating,attractiveness,Hoe aantrekkelijk vind jij dit gezicht?,Je beoordeelt dit op een schaal van ‘Zeer onaantrekkelijk’ tot ‘Zeer aantrekkelijk’.,Zeer onaantrekkelijk,Zeer aantrekkelijk,stims/neutral_stims/id-1363_gender-M_age-19.png,19,M,,,,,,,,,,,,,,,,0,2,2,2,0,43,43,41,,,,,,,,,,,,,,,,,,,,,-1,1.035,,,,,,,,,99,M,FALSE,FALSE,2018_okt_15_1409,pilot_RL,29.99706506
rating,attractiveness,Hoe aantrekkelijk vind jij dit gezicht?,Je beoordeelt dit op een schaal van ‘Zeer onaantrekkelijk’ tot ‘Zeer aantrekkelijk’.,Zeer onaantrekkelijk,Zeer aantrekkelijk,stims/neutral_stims/id-1342_gender-M_age-19.png,19,M,,,,,,,,,,,,,,,,0,2,2,2,0,44,44,30,,,,,,,,,,,,,,,,,,,,,-1,1.635,,,,,,,,,99,M,FALSE,FALSE,2018_okt_15_1409,pilot_RL,29.99706506
rating,attractiveness,Hoe aantrekkelijk vind jij dit gezicht?,Je beoordeelt dit op een schaal van ‘Zeer onaantrekkelijk’ tot ‘Zeer aantrekkelijk’.,Zeer onaantrekkelijk,Zeer aantrekkelijk,stims/neutral_stims/id-1309_gender-M_age-22.png,22,M,,,,,,,,,,,,,,,,0,2,2,2,0,45,45,21,,,,,,,,,,,,,,,,,,,,,-2,1.499,,,,,,,,,99,M,FALSE,FALSE,2018_okt_15_1409,pilot_RL,29.99706506
rating,attractiveness,Hoe aantrekkelijk vind jij dit gezicht?,Je beoordeelt dit op een schaal van ‘Zeer onaantrekkelijk’ tot ‘Zeer aantrekkelijk’.,Zeer onaantrekkelijk,Zeer aantrekkelijk,stims/neutral_stims/id-1307_gender-F_age-22.png,22,F,,,,,,,,,,,,,,,,0,2,2,2,0,46,46,20,,,,,,,,,,,,,,,,,,,,,0,1.501,,,,,,,,,99,M,FALSE,FALSE,2018_okt_15_1409,pilot_RL,29.99706506
rating,attractiveness,Hoe aantrekkelijk vind jij dit gezicht?,Je beoordeelt dit op een schaal van ‘Zeer onaantrekkelijk’ tot ‘Zeer aantrekkelijk’.,Zeer onaantrekkelijk,Zeer aantrekkelijk,stims/neutral_stims/id-1370_gender-M_age-19.png,19,M,,,,,,,,,,,,,,,,0,2,2,2,0,47,47,44,,,,,,,,,,,,,,,,,,,,,1,1.634,,,,,,,,,99,M,FALSE,FALSE,2018_okt_15_1409,pilot_RL,29.99706506
rating,attractiveness,Hoe aantrekkelijk vind jij dit gezicht?,Je beoordeelt dit op een schaal van ‘Zeer onaantrekkelijk’ tot ‘Zeer aantrekkelijk’.,Zeer onaantrekkelijk,Zeer aantrekkelijk,stims/neutral_stims/id-1354_gender-F_age-23.png,23,F,,,,,,,,,,,,,,,,0,2,2,2,0,48,48,34,,,,,,,,,,,,,,,,,,,,,-3,1.468,,,,,,,,,99,M,FALSE,FALSE,2018_okt_15_1409,pilot_RL,29.99706506
rating,attractiveness,Hoe aantrekkelijk vind jij dit gezicht?,Je beoordeelt dit op een schaal van ‘Zeer onaantrekkelijk’ tot ‘Zeer aantrekkelijk’.,Zeer onaantrekkelijk,Zeer aantrekkelijk,stims/neutral_stims/id-1344_gender-M_age-25.png,25,M,,,,,,,,,,,,,,,,0,2,2,2,0,49,49,31,,,,,,,,,,,,,,,,,,,,,-3,1.234,,,,,,,,,99,M,FALSE,FALSE,2018_okt_15_1409,pilot_RL,29.99706506
rating,attractiveness,Hoe aantrekkelijk vind jij dit gezicht?,Je beoordeelt dit op een schaal van ‘Zeer onaantrekkelijk’ tot ‘Zeer aantrekkelijk’.,Zeer onaantrekkelijk,Zeer aantrekkelijk,,,,,,,,,,,,,,,,,,,0,2,2,2,,,,,,,,,,,,,,,,,,,,,,,,,,,,,,,,,,,99,M,FALSE,FALSE,2018_okt_15_1409,pilot_RL,29.99706506
rating,trustworthiness,Hoe betrouwbaar vind jij dit gezicht?,Je beoordeelt dit op een schaal van ‘Zeer onbetrouwbaar’ tot ‘Zeer betrouwbaar’.,Zeer onbetrouwbaar,Zeer betrouwbaar,stims/neutral_stims/id-1347_gender-F_age-27.png,27,F,,,,,,,,,,,,,,,,0,3,3,3,0,0,0,33,,,,,,,,,,,,,,,,,,,,,-1,4.132,,,,,,,,,99,M,FALSE,FALSE,2018_okt_15_1409,pilot_RL,29.99706506
rating,trustworthiness,Hoe betrouwbaar vind jij dit gezicht?,Je beoordeelt dit op een schaal van ‘Zeer onbetrouwbaar’ tot ‘Zeer betrouwbaar’.,Zeer onbetrouwbaar,Zeer betrouwbaar,stims/neutral_stims/id-1366_gender-F_age-24.png,24,F,,,,,,,,,,,,,,,,0,3,3,3,0,1,1,42,,,,,,,,,,,,,,,,,,,,,2,1.201,,,,,,,,,99,M,FALSE,FALSE,2018_okt_15_1409,pilot_RL,29.99706506
rating,trustworthiness,Hoe betrouwbaar vind jij dit gezicht?,Je beoordeelt dit op een schaal van ‘Zeer onbetrouwbaar’ tot ‘Zeer betrouwbaar’.,Zeer onbetrouwbaar,Zeer betrouwbaar,stims/neutral_stims/id-1358_gender-F_age-32.png,32,F,,,,,,,,,,,,,,,,0,3,3,3,0,2,2,37,,,,,,,,,,,,,,,,,,,,,2,1.131,,,,,,,,,99,M,FALSE,FALSE,2018_okt_15_1409,pilot_RL,29.99706506
rating,trustworthiness,Hoe betrouwbaar vind jij dit gezicht?,Je beoordeelt dit op een schaal van ‘Zeer onbetrouwbaar’ tot ‘Zeer betrouwbaar’.,Zeer onbetrouwbaar,Zeer betrouwbaar,stims/neutral_stims/id-1339_gender-F_age-30.png,30,F,,,,,,,,,,,,,,,,0,3,3,3,0,3,3,28,,,,,,,,,,,,,,,,,,,,,2,1.9,,,,,,,,,99,M,FALSE,FALSE,2018_okt_15_1409,pilot_RL,29.99706506
rating,trustworthiness,Hoe betrouwbaar vind jij dit gezicht?,Je beoordeelt dit op een schaal van ‘Zeer onbetrouwbaar’ tot ‘Zeer betrouwbaar’.,Zeer onbetrouwbaar,Zeer betrouwbaar,stims/neutral_stims/id-1294_gender-F_age-26.png,26,F,,,,,,,,,,,,,,,,0,3,3,3,0,4,4,14,,,,,,,,,,,,,,,,,,,,,2,1.233,,,,,,,,,99,M,FALSE,FALSE,2018_okt_15_1409,pilot_RL,29.99706506
rating,trustworthiness,Hoe betrouwbaar vind jij dit gezicht?,Je beoordeelt dit op een schaal van ‘Zeer onbetrouwbaar’ tot ‘Zeer betrouwbaar’.,Zeer onbetrouwbaar,Zeer betrouwbaar,stims/neutral_stims/id-1362_gender-F_age-24.png,24,F,,,,,,,,,,,,,,,,0,3,3,3,0,5,5,40,,,,,,,,,,,,,,,,,,,,,0,1.068,,,,,,,,,99,M,FALSE,FALSE,2018_okt_15_1409,pilot_RL,29.99706506
rating,trustworthiness,Hoe betrouwbaar vind jij dit gezicht?,Je beoordeelt dit op een schaal van ‘Zeer onbetrouwbaar’ tot ‘Zeer betrouwbaar’.,Zeer onbetrouwbaar,Zeer betrouwbaar,stims/neutral_stims/id-1335_gender-M_age-23.png,23,M,,,,,,,,,,,,,,,,0,3,3,3,0,6,6,27,,,,,,,,,,,,,,,,,,,,,2,1.268,,,,,,,,,99,M,FALSE,FALSE,2018_okt_15_1409,pilot_RL,29.99706506
rating,trustworthiness,Hoe betrouwbaar vind jij dit gezicht?,Je beoordeelt dit op een schaal van ‘Zeer onbetrouwbaar’ tot ‘Zeer betrouwbaar’.,Zeer onbetrouwbaar,Zeer betrouwbaar,stims/neutral_stims/id-1309_gender-M_age-22.png,22,M,,,,,,,,,,,,,,,,0,3,3,3,0,7,7,21,,,,,,,,,,,,,,,,,,,,,-2,1.503,,,,,,,,,99,M,FALSE,FALSE,2018_okt_15_1409,pilot_RL,29.99706506
rating,trustworthiness,Hoe betrouwbaar vind jij dit gezicht?,Je beoordeelt dit op een schaal van ‘Zeer onbetrouwbaar’ tot ‘Zeer betrouwbaar’.,Zeer onbetrouwbaar,Zeer betrouwbaar,stims/neutral_stims/id-1266_gender-M_age-21.png,21,M,,,,,,,,,,,,,,,,0,3,3,3,0,8,8,2,,,,,,,,,,,,,,,,,,,,,1,1.231,,,,,,,,,99,M,FALSE,FALSE,2018_okt_15_1409,pilot_RL,29.99706506
rating,trustworthiness,Hoe betrouwbaar vind jij dit gezicht?,Je beoordeelt dit op een schaal van ‘Zeer onbetrouwbaar’ tot ‘Zeer betrouwbaar’.,Zeer onbetrouwbaar,Zeer betrouwbaar,stims/neutral_stims/id-1279_gender-F_age-19.png,19,F,,,,,,,,,,,,,,,,0,3,3,3,0,9,9,7,,,,,,,,,,,,,,,,,,,,,1,1.602,,,,,,,,,99,M,FALSE,FALSE,2018_okt_15_1409,pilot_RL,29.99706506
rating,trustworthiness,Hoe betrouwbaar vind jij dit gezicht?,Je beoordeelt dit op een schaal van ‘Zeer onbetrouwbaar’ tot ‘Zeer betrouwbaar’.,Zeer onbetrouwbaar,Zeer betrouwbaar,stims/neutral_stims/id-1315_gender-M_age-16.png,16,M,,,,,,,,,,,,,,,,0,3,3,3,0,10,10,24,,,,,,,,,,,,,,,,,,,,,2,1.668,,,,,,,,,99,M,FALSE,FALSE,2018_okt_15_1409,pilot_RL,29.99706506
rating,trustworthiness,Hoe betrouwbaar vind jij dit gezicht?,Je beoordeelt dit op een schaal van ‘Zeer onbetrouwbaar’ tot ‘Zeer betrouwbaar’.,Zeer onbetrouwbaar,Zeer betrouwbaar,stims/neutral_stims/id-1360_gender-F_age-20.png,20,F,,,,,,,,,,,,,,,,0,3,3,3,0,11,11,38,,,,,,,,,,,,,,,,,,,,,-1,1.833,,,,,,,,,99,M,FALSE,FALSE,2018_okt_15_1409,pilot_RL,29.99706506
rating,trustworthiness,Hoe betrouwbaar vind jij dit gezicht?,Je beoordeelt dit op een schaal van ‘Zeer onbetrouwbaar’ tot ‘Zeer betrouwbaar’.,Zeer onbetrouwbaar,Zeer betrouwbaar,stims/neutral_stims/id-1295_gender-F_age-26.png,26,F,,,,,,,,,,,,,,,,0,3,3,3,0,12,12,15,,,,,,,,,,,,,,,,,,,,,-2,1.368,,,,,,,,,99,M,FALSE,FALSE,2018_okt_15_1409,pilot_RL,29.99706506
rating,trustworthiness,Hoe betrouwbaar vind jij dit gezicht?,Je beoordeelt dit op een schaal van ‘Zeer onbetrouwbaar’ tot ‘Zeer betrouwbaar’.,Zeer onbetrouwbaar,Zeer betrouwbaar,stims/neutral_stims/id-1378_gender-F_age-19.png,19,F,,,,,,,,,,,,,,,,0,3,3,3,0,13,13,48,,,,,,,,,,,,,,,,,,,,,2,1.699,,,,,,,,,99,M,FALSE,FALSE,2018_okt_15_1409,pilot_RL,29.99706506
rating,trustworthiness,Hoe betrouwbaar vind jij dit gezicht?,Je beoordeelt dit op een schaal van ‘Zeer onbetrouwbaar’ tot ‘Zeer betrouwbaar’.,Zeer onbetrouwbaar,Zeer betrouwbaar,stims/neutral_stims/id-1307_gender-F_age-22.png,22,F,,,,,,,,,,,,,,,,0,3,3,3,0,14,14,20,,,,,,,,,,,,,,,,,,,,,2,3.901,,,,,,,,,99,M,FALSE,FALSE,2018_okt_15_1409,pilot_RL,29.99706506
rating,trustworthiness,Hoe betrouwbaar vind jij dit gezicht?,Je beoordeelt dit op een schaal van ‘Zeer onbetrouwbaar’ tot ‘Zeer betrouwbaar’.,Zeer onbetrouwbaar,Zeer betrouwbaar,stims/neutral_stims/id-1297_gender-F_age-22.png,22,F,,,,,,,,,,,,,,,,0,3,3,3,0,15,15,17,,,,,,,,,,,,,,,,,,,,,-2,1.098,,,,,,,,,99,M,FALSE,FALSE,2018_okt_15_1409,pilot_RL,29.99706506
rating,trustworthiness,Hoe betrouwbaar vind jij dit gezicht?,Je beoordeelt dit op een schaal van ‘Zeer onbetrouwbaar’ tot ‘Zeer betrouwbaar’.,Zeer onbetrouwbaar,Zeer betrouwbaar,stims/neutral_stims/id-1377_gender-M_age-20.png,20,M,,,,,,,,,,,,,,,,0,3,3,3,0,16,16,47,,,,,,,,,,,,,,,,,,,,,0,1.034,,,,,,,,,99,M,FALSE,FALSE,2018_okt_15_1409,pilot_RL,29.99706506
rating,trustworthiness,Hoe betrouwbaar vind jij dit gezicht?,Je beoordeelt dit op een schaal van ‘Zeer onbetrouwbaar’ tot ‘Zeer betrouwbaar’.,Zeer onbetrouwbaar,Zeer betrouwbaar,stims/neutral_stims/id-1345_gender-M_age-18.png,18,M,,,,,,,,,,,,,,,,0,3,3,3,0,17,17,32,,,,,,,,,,,,,,,,,,,,,-2,1.568,,,,,,,,,99,M,FALSE,FALSE,2018_okt_15_1409,pilot_RL,29.99706506
rating,trustworthiness,Hoe betrouwbaar vind jij dit gezicht?,Je beoordeelt dit op een schaal van ‘Zeer onbetrouwbaar’ tot ‘Zeer betrouwbaar’.,Zeer onbetrouwbaar,Zeer betrouwbaar,stims/neutral_stims/id-1285_gender-F_age-19.png,19,F,,,,,,,,,,,,,,,,0,3,3,3,0,18,18,9,,,,,,,,,,,,,,,,,,,,,2,1.167,,,,,,,,,99,M,FALSE,FALSE,2018_okt_15_1409,pilot_RL,29.99706506
rating,trustworthiness,Hoe betrouwbaar vind jij dit gezicht?,Je beoordeelt dit op een schaal van ‘Zeer onbetrouwbaar’ tot ‘Zeer betrouwbaar’.,Zeer onbetrouwbaar,Zeer betrouwbaar,stims/neutral_stims/id-1367_gender-M_age-20.png,20,M,,,,,,,,,,,,,,,,0,3,3,3,0,19,19,43,,,,,,,,,,,,,,,,,,,,,0,1.969,,,,,,,,,99,M,FALSE,FALSE,2018_okt_15_1409,pilot_RL,29.99706506
rating,trustworthiness,Hoe betrouwbaar vind jij dit gezicht?,Je beoordeelt dit op een schaal van ‘Zeer onbetrouwbaar’ tot ‘Zeer betrouwbaar’.,Zeer onbetrouwbaar,Zeer betrouwbaar,stims/neutral_stims/id-1361_gender-F_age-19.png,19,F,,,,,,,,,,,,,,,,0,3,3,3,0,20,20,39,,,,,,,,,,,,,,,,,,,,,1,1.533,,,,,,,,,99,M,FALSE,FALSE,2018_okt_15_1409,pilot_RL,29.99706506
rating,trustworthiness,Hoe betrouwbaar vind jij dit gezicht?,Je beoordeelt dit op een schaal van ‘Zeer onbetrouwbaar’ tot ‘Zeer betrouwbaar’.,Zeer onbetrouwbaar,Zeer betrouwbaar,stims/neutral_stims/id-1264_gender-F_age-26.png,26,F,,,,,,,,,,,,,,,,0,3,3,3,0,21,21,1,,,,,,,,,,,,,,,,,,,,,-2,1.101,,,,,,,,,99,M,FALSE,FALSE,2018_okt_15_1409,pilot_RL,29.99706506
rating,trustworthiness,Hoe betrouwbaar vind jij dit gezicht?,Je beoordeelt dit op een schaal van ‘Zeer onbetrouwbaar’ tot ‘Zeer betrouwbaar’.,Zeer onbetrouwbaar,Zeer betrouwbaar,stims/neutral_stims/id-1373_gender-F_age-30.png,30,F,,,,,,,,,,,,,,,,0,3,3,3,0,22,22,45,,,,,,,,,,,,,,,,,,,,,0,1.001,,,,,,,,,99,M,FALSE,FALSE,2018_okt_15_1409,pilot_RL,29.99706506
rating,trustworthiness,Hoe betrouwbaar vind jij dit gezicht?,Je beoordeelt dit op een schaal van ‘Zeer onbetrouwbaar’ tot ‘Zeer betrouwbaar’.,Zeer onbetrouwbaar,Zeer betrouwbaar,stims/neutral_stims/id-1311_gender-F_age-22.png,22,F,,,,,,,,,,,,,,,,0,3,3,3,0,23,23,23,,,,,,,,,,,,,,,,,,,,,1,4.035,,,,,,,,,99,M,FALSE,FALSE,2018_okt_15_1409,pilot_RL,29.99706506
rating,trustworthiness,Hoe betrouwbaar vind jij dit gezicht?,Je beoordeelt dit op een schaal van ‘Zeer onbetrouwbaar’ tot ‘Zeer betrouwbaar’.,Zeer onbetrouwbaar,Zeer betrouwbaar,stims/neutral_stims/id-1380_gender-F_age-21.png,21,F,,,,,,,,,,,,,,,,0,3,3,3,0,24,24,49,,,,,,,,,,,,,,,,,,,,,0,1.201,,,,,,,,,99,M,FALSE,FALSE,2018_okt_15_1409,pilot_RL,29.99706506
rating,trustworthiness,Hoe betrouwbaar vind jij dit gezicht?,Je beoordeelt dit op een schaal van ‘Zeer onbetrouwbaar’ tot ‘Zeer betrouwbaar’.,Zeer onbetrouwbaar,Zeer betrouwbaar,stims/neutral_stims/id-1323_gender-F_age-23.png,23,F,,,,,,,,,,,,,,,,0,3,3,3,0,25,25,26,,,,,,,,,,,,,,,,,,,,,-2,1,,,,,,,,,99,M,FALSE,FALSE,2018_okt_15_1409,pilot_RL,29.99706506
rating,trustworthiness,Hoe betrouwbaar vind jij dit gezicht?,Je beoordeelt dit op een schaal van ‘Zeer onbetrouwbaar’ tot ‘Zeer betrouwbaar’.,Zeer onbetrouwbaar,Zeer betrouwbaar,stims/neutral_stims/id-1356_gender-F_age-20.png,20,F,,,,,,,,,,,,,,,,0,3,3,3,0,26,26,36,,,,,,,,,,,,,,,,,,,,,2,4.368,,,,,,,,,99,M,FALSE,FALSE,2018_okt_15_1409,pilot_RL,29.99706506
rating,trustworthiness,Hoe betrouwbaar vind jij dit gezicht?,Je beoordeelt dit op een schaal van ‘Zeer onbetrouwbaar’ tot ‘Zeer betrouwbaar’.,Zeer onbetrouwbaar,Zeer betrouwbaar,stims/neutral_stims/id-1363_gender-M_age-19.png,19,M,,,,,,,,,,,,,,,,0,3,3,3,0,27,27,41,,,,,,,,,,,,,,,,,,,,,-1,0.869,,,,,,,,,99,M,FALSE,FALSE,2018_okt_15_1409,pilot_RL,29.99706506
rating,trustworthiness,Hoe betrouwbaar vind jij dit gezicht?,Je beoordeelt dit op een schaal van ‘Zeer onbetrouwbaar’ tot ‘Zeer betrouwbaar’.,Zeer onbetrouwbaar,Zeer betrouwbaar,stims/neutral_stims/id-1310_gender-F_age-28.png,28,F,,,,,,,,,,,,,,,,0,3,3,3,0,28,28,22,,,,,,,,,,,,,,,,,,,,,-2,1.201,,,,,,,,,99,M,FALSE,FALSE,2018_okt_15_1409,pilot_RL,29.99706506
rating,trustworthiness,Hoe betrouwbaar vind jij dit gezicht?,Je beoordeelt dit op een schaal van ‘Zeer onbetrouwbaar’ tot ‘Zeer betrouwbaar’.,Zeer onbetrouwbaar,Zeer betrouwbaar,stims/neutral_stims/id-1342_gender-M_age-19.png,19,M,,,,,,,,,,,,,,,,0,3,3,3,0,29,29,30,,,,,,,,,,,,,,,,,,,,,-3,1.701,,,,,,,,,99,M,FALSE,FALSE,2018_okt_15_1409,pilot_RL,29.99706506
rating,trustworthiness,Hoe betrouwbaar vind jij dit gezicht?,Je beoordeelt dit op een schaal van ‘Zeer onbetrouwbaar’ tot ‘Zeer betrouwbaar’.,Zeer onbetrouwbaar,Zeer betrouwbaar,stims/neutral_stims/id-1291_gender-F_age-24.png,24,F,,,,,,,,,,,,,,,,0,3,3,3,0,30,30,12,,,,,,,,,,,,,,,,,,,,,-1,2.834,,,,,,,,,99,M,FALSE,FALSE,2018_okt_15_1409,pilot_RL,29.99706506
rating,trustworthiness,Hoe betrouwbaar vind jij dit gezicht?,Je beoordeelt dit op een schaal van ‘Zeer onbetrouwbaar’ tot ‘Zeer betrouwbaar’.,Zeer onbetrouwbaar,Zeer betrouwbaar,stims/neutral_stims/id-1341_gender-M_age-19.png,19,M,,,,,,,,,,,,,,,,0,3,3,3,0,31,31,29,,,,,,,,,,,,,,,,,,,,,0,0.968,,,,,,,,,99,M,FALSE,FALSE,2018_okt_15_1409,pilot_RL,29.99706506
rating,trustworthiness,Hoe betrouwbaar vind jij dit gezicht?,Je beoordeelt dit op een schaal van ‘Zeer onbetrouwbaar’ tot ‘Zeer betrouwbaar’.,Zeer onbetrouwbaar,Zeer betrouwbaar,stims/neutral_stims/id-1269_gender-F_age-23.png,23,F,,,,,,,,,,,,,,,,0,3,3,3,0,32,32,3,,,,,,,,,,,,,,,,,,,,,-1,2.168,,,,,,,,,99,M,FALSE,FALSE,2018_okt_15_1409,pilot_RL,29.99706506
rating,trustworthiness,Hoe betrouwbaar vind jij dit gezicht?,Je beoordeelt dit op een schaal van ‘Zeer onbetrouwbaar’ tot ‘Zeer betrouwbaar’.,Zeer onbetrouwbaar,Zeer betrouwbaar,stims/neutral_stims/id-1290_gender-F_age-23.png,23,F,,,,,,,,,,,,,,,,0,3,3,3,0,33,33,11,,,,,,,,,,,,,,,,,,,,,-2,1.433,,,,,,,,,99,M,FALSE,FALSE,2018_okt_15_1409,pilot_RL,29.99706506
rating,trustworthiness,Hoe betrouwbaar vind jij dit gezicht?,Je beoordeelt dit op een schaal van ‘Zeer onbetrouwbaar’ tot ‘Zeer betrouwbaar’.,Zeer onbetrouwbaar,Zeer betrouwbaar,stims/neutral_stims/id-1306_gender-F_age-21.png,21,F,,,,,,,,,,,,,,,,0,3,3,3,0,34,34,19,,,,,,,,,,,,,,,,,,,,,0,1.434,,,,,,,,,99,M,FALSE,FALSE,2018_okt_15_1409,pilot_RL,29.99706506
rating,trustworthiness,Hoe betrouwbaar vind jij dit gezicht?,Je beoordeelt dit op een schaal van ‘Zeer onbetrouwbaar’ tot ‘Zeer betrouwbaar’.,Zeer onbetrouwbaar,Zeer betrouwbaar,stims/neutral_stims/id-1355_gender-F_age-19.png,19,F,,,,,,,,,,,,,,,,0,3,3,3,0,35,35,35,,,,,,,,,,,,,,,,,,,,,2,1.399,,,,,,,,,99,M,FALSE,FALSE,2018_okt_15_1409,pilot_RL,29.99706506
rating,trustworthiness,Hoe betrouwbaar vind jij dit gezicht?,Je beoordeelt dit op een schaal van ‘Zeer onbetrouwbaar’ tot ‘Zeer betrouwbaar’.,Zeer onbetrouwbaar,Zeer betrouwbaar,stims/neutral_stims/id-1273_gender-F_age-20.png,20,F,,,,,,,,,,,,,,,,0,3,3,3,0,36,36,5,,,,,,,,,,,,,,,,,,,,,3,4.335,,,,,,,,,99,M,FALSE,FALSE,2018_okt_15_1409,pilot_RL,29.99706506
rating,trustworthiness,Hoe betrouwbaar vind jij dit gezicht?,Je beoordeelt dit op een schaal van ‘Zeer onbetrouwbaar’ tot ‘Zeer betrouwbaar’.,Zeer onbetrouwbaar,Zeer betrouwbaar,stims/neutral_stims/id-1289_gender-F_age-20.png,20,F,,,,,,,,,,,,,,,,0,3,3,3,0,37,37,10,,,,,,,,,,,,,,,,,,,,,-2,1.203,,,,,,,,,99,M,FALSE,FALSE,2018_okt_15_1409,pilot_RL,29.99706506
rating,trustworthiness,Hoe betrouwbaar vind jij dit gezicht?,Je beoordeelt dit op een schaal van ‘Zeer onbetrouwbaar’ tot ‘Zeer betrouwbaar’.,Zeer onbetrouwbaar,Zeer betrouwbaar,stims/neutral_stims/id-1270_gender-F_age-30.png,30,F,,,,,,,,,,,,,,,,0,3,3,3,0,38,38,4,,,,,,,,,,,,,,,,,,,,,1,1.201,,,,,,,,,99,M,FALSE,FALSE,2018_okt_15_1409,pilot_RL,29.99706506
rating,trustworthiness,Hoe betrouwbaar vind jij dit gezicht?,Je beoordeelt dit op een schaal van ‘Zeer onbetrouwbaar’ tot ‘Zeer betrouwbaar’.,Zeer onbetrouwbaar,Zeer betrouwbaar,stims/neutral_stims/id-1274_gender-F_age-33.png,33,F,,,,,,,,,,,,,,,,0,3,3,3,0,39,39,6,,,,,,,,,,,,,,,,,,,,,-1,1.568,,,,,,,,,99,M,FALSE,FALSE,2018_okt_15_1409,pilot_RL,29.99706506
rating,trustworthiness,Hoe betrouwbaar vind jij dit gezicht?,Je beoordeelt dit op een schaal van ‘Zeer onbetrouwbaar’ tot ‘Zeer betrouwbaar’.,Zeer onbetrouwbaar,Zeer betrouwbaar,stims/neutral_stims/id-1354_gender-F_age-23.png,23,F,,,,,,,,,,,,,,,,0,3,3,3,0,40,40,34,,,,,,,,,,,,,,,,,,,,,-1,2.469,,,,,,,,,99,M,FALSE,FALSE,2018_okt_15_1409,pilot_RL,29.99706506
rating,trustworthiness,Hoe betrouwbaar vind jij dit gezicht?,Je beoordeelt dit op een schaal van ‘Zeer onbetrouwbaar’ tot ‘Zeer betrouwbaar’.,Zeer onbetrouwbaar,Zeer betrouwbaar,stims/neutral_stims/id-1280_gender-M_age-18.png,18,M,,,,,,,,,,,,,,,,0,3,3,3,0,41,41,8,,,,,,,,,,,,,,,,,,,,,-3,1.401,,,,,,,,,99,M,FALSE,FALSE,2018_okt_15_1409,pilot_RL,29.99706506
rating,trustworthiness,Hoe betrouwbaar vind jij dit gezicht?,Je beoordeelt dit op een schaal van ‘Zeer onbetrouwbaar’ tot ‘Zeer betrouwbaar’.,Zeer onbetrouwbaar,Zeer betrouwbaar,stims/neutral_stims/id-1376_gender-F_age-19.png,19,F,,,,,,,,,,,,,,,,0,3,3,3,0,42,42,46,,,,,,,,,,,,,,,,,,,,,0,1.068,,,,,,,,,99,M,FALSE,FALSE,2018_okt_15_1409,pilot_RL,29.99706506
rating,trustworthiness,Hoe betrouwbaar vind jij dit gezicht?,Je beoordeelt dit op een schaal van ‘Zeer onbetrouwbaar’ tot ‘Zeer betrouwbaar’.,Zeer onbetrouwbaar,Zeer betrouwbaar,stims/neutral_stims/id-1302_gender-F_age-30.png,30,F,,,,,,,,,,,,,,,,0,3,3,3,0,43,43,18,,,,,,,,,,,,,,,,,,,,,1,1.298,,,,,,,,,99,M,FALSE,FALSE,2018_okt_15_1409,pilot_RL,29.99706506
rating,trustworthiness,Hoe betrouwbaar vind jij dit gezicht?,Je beoordeelt dit op een schaal van ‘Zeer onbetrouwbaar’ tot ‘Zeer betrouwbaar’.,Zeer onbetrouwbaar,Zeer betrouwbaar,stims/neutral_stims/id-1370_gender-M_age-19.png,19,M,,,,,,,,,,,,,,,,0,3,3,3,0,44,44,44,,,,,,,,,,,,,,,,,,,,,2,1.168,,,,,,,,,99,M,FALSE,FALSE,2018_okt_15_1409,pilot_RL,29.99706506
rating,trustworthiness,Hoe betrouwbaar vind jij dit gezicht?,Je beoordeelt dit op een schaal van ‘Zeer onbetrouwbaar’ tot ‘Zeer betrouwbaar’.,Zeer onbetrouwbaar,Zeer betrouwbaar,stims/neutral_stims/id-1318_gender-M_age-35.png,35,M,,,,,,,,,,,,,,,,0,3,3,3,0,45,45,25,,,,,,,,,,,,,,,,,,,,,-3,2.734,,,,,,,,,99,M,FALSE,FALSE,2018_okt_15_1409,pilot_RL,29.99706506
rating,trustworthiness,Hoe betrouwbaar vind jij dit gezicht?,Je beoordeelt dit op een schaal van ‘Zeer onbetrouwbaar’ tot ‘Zeer betrouwbaar’.,Zeer onbetrouwbaar,Zeer betrouwbaar,stims/neutral_stims/id-1296_gender-F_age-23.png,23,F,,,,,,,,,,,,,,,,0,3,3,3,0,46,46,16,,,,,,,,,,,,,,,,,,,,,-1,1.001,,,,,,,,,99,M,FALSE,FALSE,2018_okt_15_1409,pilot_RL,29.99706506
rating,trustworthiness,Hoe betrouwbaar vind jij dit gezicht?,Je beoordeelt dit op een schaal van ‘Zeer onbetrouwbaar’ tot ‘Zeer betrouwbaar’.,Zeer onbetrouwbaar,Zeer betrouwbaar,stims/neutral_stims/id-1260_gender-F_age-22.png,22,F,,,,,,,,,,,,,,,,0,3,3,3,0,47,47,0,,,,,,,,,,,,,,,,,,,,,2,1.968,,,,,,,,,99,M,FALSE,FALSE,2018_okt_15_1409,pilot_RL,29.99706506
rating,trustworthiness,Hoe betrouwbaar vind jij dit gezicht?,Je beoordeelt dit op een schaal van ‘Zeer onbetrouwbaar’ tot ‘Zeer betrouwbaar’.,Zeer onbetrouwbaar,Zeer betrouwbaar,stims/neutral_stims/id-1344_gender-M_age-25.png,25,M,,,,,,,,,,,,,,,,0,3,3,3,0,48,48,31,,,,,,,,,,,,,,,,,,,,,-2,1.303,,,,,,,,,99,M,FALSE,FALSE,2018_okt_15_1409,pilot_RL,29.99706506
rating,trustworthiness,Hoe betrouwbaar vind jij dit gezicht?,Je beoordeelt dit op een schaal van ‘Zeer onbetrouwbaar’ tot ‘Zeer betrouwbaar’.,Zeer onbetrouwbaar,Zeer betrouwbaar,stims/neutral_stims/id-1293_gender-F_age-31.png,31,F,,,,,,,,,,,,,,,,0,3,3,3,0,49,49,13,,,,,,,,,,,,,,,,,,,,,0,10.268,,,,,,,,,99,M,FALSE,FALSE,2018_okt_15_1409,pilot_RL,29.99706506
rating,trustworthiness,Hoe betrouwbaar vind jij dit gezicht?,Je beoordeelt dit op een schaal van ‘Zeer onbetrouwbaar’ tot ‘Zeer betrouwbaar’.,Zeer onbetrouwbaar,Zeer betrouwbaar,,,,,,,,,,,,,,,,,,,0,3,3,3,,,,,,,,,,,,,,,,,,,,,,,,,,,,,,,,,,,99,M,FALSE,FALSE,2018_okt_15_1409,pilot_RL,29.99706506
rating,arousal,Hoe geactiveerd maakt dit gezicht je?,"Je beoordeelt dit op een schaal van ‘Helemaal niet geactiveerd’ tot ‘Zeer geactiveerd’. Met ‘geactiveerd’ bedoelen we dat het het gezicht je alert, energiek, en/of gespannen doet voelen; met ‘niet geactiveerd’ bedoelen we dat het gezicht je kalm, ontspannen, en/of rustig doet voelen.",Helemaal niet geactiveerd,Zeer geactiveerd,stims/neutral_stims/id-1309_gender-M_age-22.png,22,M,,,,,,,,,,,,,,,,0,4,4,1,0,0,0,21,,,,,,,,,,,,,,,,,,,,,2,8.635,,,,,,,,,99,M,FALSE,FALSE,2018_okt_15_1409,pilot_RL,29.99706506
rating,arousal,Hoe geactiveerd maakt dit gezicht je?,"Je beoordeelt dit op een schaal van ‘Helemaal niet geactiveerd’ tot ‘Zeer geactiveerd’. Met ‘geactiveerd’ bedoelen we dat het het gezicht je alert, energiek, en/of gespannen doet voelen; met ‘niet geactiveerd’ bedoelen we dat het gezicht je kalm, ontspannen, en/of rustig doet voelen.",Helemaal niet geactiveerd,Zeer geactiveerd,stims/neutral_stims/id-1360_gender-F_age-20.png,20,F,,,,,,,,,,,,,,,,0,4,4,1,0,1,1,38,,,,,,,,,,,,,,,,,,,,,1,1.968,,,,,,,,,99,M,FALSE,FALSE,2018_okt_15_1409,pilot_RL,29.99706506
rating,arousal,Hoe geactiveerd maakt dit gezicht je?,"Je beoordeelt dit op een schaal van ‘Helemaal niet geactiveerd’ tot ‘Zeer geactiveerd’. Met ‘geactiveerd’ bedoelen we dat het het gezicht je alert, energiek, en/of gespannen doet voelen; met ‘niet geactiveerd’ bedoelen we dat het gezicht je kalm, ontspannen, en/of rustig doet voelen.",Helemaal niet geactiveerd,Zeer geactiveerd,stims/neutral_stims/id-1354_gender-F_age-23.png,23,F,,,,,,,,,,,,,,,,0,4,4,1,0,2,2,34,,,,,,,,,,,,,,,,,,,,,3,2.534,,,,,,,,,99,M,FALSE,FALSE,2018_okt_15_1409,pilot_RL,29.99706506
rating,arousal,Hoe geactiveerd maakt dit gezicht je?,"Je beoordeelt dit op een schaal van ‘Helemaal niet geactiveerd’ tot ‘Zeer geactiveerd’. Met ‘geactiveerd’ bedoelen we dat het het gezicht je alert, energiek, en/of gespannen doet voelen; met ‘niet geactiveerd’ bedoelen we dat het gezicht je kalm, ontspannen, en/of rustig doet voelen.",Helemaal niet geactiveerd,Zeer geactiveerd,stims/neutral_stims/id-1344_gender-M_age-25.png,25,M,,,,,,,,,,,,,,,,0,4,4,1,0,3,3,31,,,,,,,,,,,,,,,,,,,,,1,4.535,,,,,,,,,99,M,FALSE,FALSE,2018_okt_15_1409,pilot_RL,29.99706506
rating,arousal,Hoe geactiveerd maakt dit gezicht je?,"Je beoordeelt dit op een schaal van ‘Helemaal niet geactiveerd’ tot ‘Zeer geactiveerd’. Met ‘geactiveerd’ bedoelen we dat het het gezicht je alert, energiek, en/of gespannen doet voelen; met ‘niet geactiveerd’ bedoelen we dat het gezicht je kalm, ontspannen, en/of rustig doet voelen.",Helemaal niet geactiveerd,Zeer geactiveerd,stims/neutral_stims/id-1264_gender-F_age-26.png,26,F,,,,,,,,,,,,,,,,0,4,4,1,0,4,4,1,,,,,,,,,,,,,,,,,,,,,2,1.334,,,,,,,,,99,M,FALSE,FALSE,2018_okt_15_1409,pilot_RL,29.99706506
rating,arousal,Hoe geactiveerd maakt dit gezicht je?,"Je beoordeelt dit op een schaal van ‘Helemaal niet geactiveerd’ tot ‘Zeer geactiveerd’. Met ‘geactiveerd’ bedoelen we dat het het gezicht je alert, energiek, en/of gespannen doet voelen; met ‘niet geactiveerd’ bedoelen we dat het gezicht je kalm, ontspannen, en/of rustig doet voelen.",Helemaal niet geactiveerd,Zeer geactiveerd,stims/neutral_stims/id-1367_gender-M_age-20.png,20,M,,,,,,,,,,,,,,,,0,4,4,1,0,5,5,43,,,,,,,,,,,,,,,,,,,,,1,13.335,,,,,,,,,99,M,FALSE,FALSE,2018_okt_15_1409,pilot_RL,29.99706506
rating,arousal,Hoe geactiveerd maakt dit gezicht je?,"Je beoordeelt dit op een schaal van ‘Helemaal niet geactiveerd’ tot ‘Zeer geactiveerd’. Met ‘geactiveerd’ bedoelen we dat het het gezicht je alert, energiek, en/of gespannen doet voelen; met ‘niet geactiveerd’ bedoelen we dat het gezicht je kalm, ontspannen, en/of rustig doet voelen.",Helemaal niet geactiveerd,Zeer geactiveerd,stims/neutral_stims/id-1339_gender-F_age-30.png,30,F,,,,,,,,,,,,,,,,0,4,4,1,0,6,6,28,,,,,,,,,,,,,,,,,,,,,-1,1.734,,,,,,,,,99,M,FALSE,FALSE,2018_okt_15_1409,pilot_RL,29.99706506
rating,arousal,Hoe geactiveerd maakt dit gezicht je?,"Je beoordeelt dit op een schaal van ‘Helemaal niet geactiveerd’ tot ‘Zeer geactiveerd’. Met ‘geactiveerd’ bedoelen we dat het het gezicht je alert, energiek, en/of gespannen doet voelen; met ‘niet geactiveerd’ bedoelen we dat het gezicht je kalm, ontspannen, en/of rustig doet voelen.",Helemaal niet geactiveerd,Zeer geactiveerd,stims/neutral_stims/id-1370_gender-M_age-19.png,19,M,,,,,,,,,,,,,,,,0,4,4,1,0,7,7,44,,,,,,,,,,,,,,,,,,,,,0,1.501,,,,,,,,,99,M,FALSE,FALSE,2018_okt_15_1409,pilot_RL,29.99706506
rating,arousal,Hoe geactiveerd maakt dit gezicht je?,"Je beoordeelt dit op een schaal van ‘Helemaal niet geactiveerd’ tot ‘Zeer geactiveerd’. Met ‘geactiveerd’ bedoelen we dat het het gezicht je alert, energiek, en/of gespannen doet voelen; met ‘niet geactiveerd’ bedoelen we dat het gezicht je kalm, ontspannen, en/of rustig doet voelen.",Helemaal niet geactiveerd,Zeer geactiveerd,stims/neutral_stims/id-1363_gender-M_age-19.png,19,M,,,,,,,,,,,,,,,,0,4,4,1,0,8,8,41,,,,,,,,,,,,,,,,,,,,,-1,4.268,,,,,,,,,99,M,FALSE,FALSE,2018_okt_15_1409,pilot_RL,29.99706506
rating,arousal,Hoe geactiveerd maakt dit gezicht je?,"Je beoordeelt dit op een schaal van ‘Helemaal niet geactiveerd’ tot ‘Zeer geactiveerd’. Met ‘geactiveerd’ bedoelen we dat het het gezicht je alert, energiek, en/of gespannen doet voelen; met ‘niet geactiveerd’ bedoelen we dat het gezicht je kalm, ontspannen, en/of rustig doet voelen.",Helemaal niet geactiveerd,Zeer geactiveerd,stims/neutral_stims/id-1266_gender-M_age-21.png,21,M,,,,,,,,,,,,,,,,0,4,4,1,0,9,9,2,,,,,,,,,,,,,,,,,,,,,-2,1.337,,,,,,,,,99,M,FALSE,FALSE,2018_okt_15_1409,pilot_RL,29.99706506
rating,arousal,Hoe geactiveerd maakt dit gezicht je?,"Je beoordeelt dit op een schaal van ‘Helemaal niet geactiveerd’ tot ‘Zeer geactiveerd’. Met ‘geactiveerd’ bedoelen we dat het het gezicht je alert, energiek, en/of gespannen doet voelen; met ‘niet geactiveerd’ bedoelen we dat het gezicht je kalm, ontspannen, en/of rustig doet voelen.",Helemaal niet geactiveerd,Zeer geactiveerd,stims/neutral_stims/id-1356_gender-F_age-20.png,20,F,,,,,,,,,,,,,,,,0,4,4,1,0,10,10,36,,,,,,,,,,,,,,,,,,,,,-2,1.2,,,,,,,,,99,M,FALSE,FALSE,2018_okt_15_1409,pilot_RL,29.99706506
rating,arousal,Hoe geactiveerd maakt dit gezicht je?,"Je beoordeelt dit op een schaal van ‘Helemaal niet geactiveerd’ tot ‘Zeer geactiveerd’. Met ‘geactiveerd’ bedoelen we dat het het gezicht je alert, energiek, en/of gespannen doet voelen; met ‘niet geactiveerd’ bedoelen we dat het gezicht je kalm, ontspannen, en/of rustig doet voelen.",Helemaal niet geactiveerd,Zeer geactiveerd,stims/neutral_stims/id-1380_gender-F_age-21.png,21,F,,,,,,,,,,,,,,,,0,4,4,1,0,11,11,49,,,,,,,,,,,,,,,,,,,,,-1,2.133,,,,,,,,,99,M,FALSE,FALSE,2018_okt_15_1409,pilot_RL,29.99706506
rating,arousal,Hoe geactiveerd maakt dit gezicht je?,"Je beoordeelt dit op een schaal van ‘Helemaal niet geactiveerd’ tot ‘Zeer geactiveerd’. Met ‘geactiveerd’ bedoelen we dat het het gezicht je alert, energiek, en/of gespannen doet voelen; met ‘niet geactiveerd’ bedoelen we dat het gezicht je kalm, ontspannen, en/of rustig doet voelen.",Helemaal niet geactiveerd,Zeer geactiveerd,stims/neutral_stims/id-1297_gender-F_age-22.png,22,F,,,,,,,,,,,,,,,,0,4,4,1,0,12,12,17,,,,,,,,,,,,,,,,,,,,,2,1.668,,,,,,,,,99,M,FALSE,FALSE,2018_okt_15_1409,pilot_RL,29.99706506
rating,arousal,Hoe geactiveerd maakt dit gezicht je?,"Je beoordeelt dit op een schaal van ‘Helemaal niet geactiveerd’ tot ‘Zeer geactiveerd’. Met ‘geactiveerd’ bedoelen we dat het het gezicht je alert, energiek, en/of gespannen doet voelen; met ‘niet geactiveerd’ bedoelen we dat het gezicht je kalm, ontspannen, en/of rustig doet voelen.",Helemaal niet geactiveerd,Zeer geactiveerd,stims/neutral_stims/id-1285_gender-F_age-19.png,19,F,,,,,,,,,,,,,,,,0,4,4,1,0,13,13,9,,,,,,,,,,,,,,,,,,,,,-2,4.934,,,,,,,,,99,M,FALSE,FALSE,2018_okt_15_1409,pilot_RL,29.99706506
rating,arousal,Hoe geactiveerd maakt dit gezicht je?,"Je beoordeelt dit op een schaal van ‘Helemaal niet geactiveerd’ tot ‘Zeer geactiveerd’. Met ‘geactiveerd’ bedoelen we dat het het gezicht je alert, energiek, en/of gespannen doet voelen; met ‘niet geactiveerd’ bedoelen we dat het gezicht je kalm, ontspannen, en/of rustig doet voelen.",Helemaal niet geactiveerd,Zeer geactiveerd,stims/neutral_stims/id-1358_gender-F_age-32.png,32,F,,,,,,,,,,,,,,,,0,4,4,1,0,14,14,37,,,,,,,,,,,,,,,,,,,,,0,2.066,,,,,,,,,99,M,FALSE,FALSE,2018_okt_15_1409,pilot_RL,29.99706506
rating,arousal,Hoe geactiveerd maakt dit gezicht je?,"Je beoordeelt dit op een schaal van ‘Helemaal niet geactiveerd’ tot ‘Zeer geactiveerd’. Met ‘geactiveerd’ bedoelen we dat het het gezicht je alert, energiek, en/of gespannen doet voelen; met ‘niet geactiveerd’ bedoelen we dat het gezicht je kalm, ontspannen, en/of rustig doet voelen.",Helemaal niet geactiveerd,Zeer geactiveerd,stims/neutral_stims/id-1274_gender-F_age-33.png,33,F,,,,,,,,,,,,,,,,0,4,4,1,0,15,15,6,,,,,,,,,,,,,,,,,,,,,1,1.201,,,,,,,,,99,M,FALSE,FALSE,2018_okt_15_1409,pilot_RL,29.99706506
rating,arousal,Hoe geactiveerd maakt dit gezicht je?,"Je beoordeelt dit op een schaal van ‘Helemaal niet geactiveerd’ tot ‘Zeer geactiveerd’. Met ‘geactiveerd’ bedoelen we dat het het gezicht je alert, energiek, en/of gespannen doet voelen; met ‘niet geactiveerd’ bedoelen we dat het gezicht je kalm, ontspannen, en/of rustig doet voelen.",Helemaal niet geactiveerd,Zeer geactiveerd,stims/neutral_stims/id-1318_gender-M_age-35.png,35,M,,,,,,,,,,,,,,,,0,4,4,1,0,16,16,25,,,,,,,,,,,,,,,,,,,,,2,1.268,,,,,,,,,99,M,FALSE,FALSE,2018_okt_15_1409,pilot_RL,29.99706506
rating,arousal,Hoe geactiveerd maakt dit gezicht je?,"Je beoordeelt dit op een schaal van ‘Helemaal niet geactiveerd’ tot ‘Zeer geactiveerd’. Met ‘geactiveerd’ bedoelen we dat het het gezicht je alert, energiek, en/of gespannen doet voelen; met ‘niet geactiveerd’ bedoelen we dat het gezicht je kalm, ontspannen, en/of rustig doet voelen.",Helemaal niet geactiveerd,Zeer geactiveerd,stims/neutral_stims/id-1293_gender-F_age-31.png,31,F,,,,,,,,,,,,,,,,0,4,4,1,0,17,17,13,,,,,,,,,,,,,,,,,,,,,-1,1.068,,,,,,,,,99,M,FALSE,FALSE,2018_okt_15_1409,pilot_RL,29.99706506
rating,arousal,Hoe geactiveerd maakt dit gezicht je?,"Je beoordeelt dit op een schaal van ‘Helemaal niet geactiveerd’ tot ‘Zeer geactiveerd’. Met ‘geactiveerd’ bedoelen we dat het het gezicht je alert, energiek, en/of gespannen doet voelen; met ‘niet geactiveerd’ bedoelen we dat het gezicht je kalm, ontspannen, en/of rustig doet voelen.",Helemaal niet geactiveerd,Zeer geactiveerd,stims/neutral_stims/id-1310_gender-F_age-28.png,28,F,,,,,,,,,,,,,,,,0,4,4,1,0,18,18,22,,,,,,,,,,,,,,,,,,,,,2,1.201,,,,,,,,,99,M,FALSE,FALSE,2018_okt_15_1409,pilot_RL,29.99706506
rating,arousal,Hoe geactiveerd maakt dit gezicht je?,"Je beoordeelt dit op een schaal van ‘Helemaal niet geactiveerd’ tot ‘Zeer geactiveerd’. Met ‘geactiveerd’ bedoelen we dat het het gezicht je alert, energiek, en/of gespannen doet voelen; met ‘niet geactiveerd’ bedoelen we dat het gezicht je kalm, ontspannen, en/of rustig doet voelen.",Helemaal niet geactiveerd,Zeer geactiveerd,stims/neutral_stims/id-1323_gender-F_age-23.png,23,F,,,,,,,,,,,,,,,,0,4,4,1,0,19,19,26,,,,,,,,,,,,,,,,,,,,,1,3.633,,,,,,,,,99,M,FALSE,FALSE,2018_okt_15_1409,pilot_RL,29.99706506
rating,arousal,Hoe geactiveerd maakt dit gezicht je?,"Je beoordeelt dit op een schaal van ‘Helemaal niet geactiveerd’ tot ‘Zeer geactiveerd’. Met ‘geactiveerd’ bedoelen we dat het het gezicht je alert, energiek, en/of gespannen doet voelen; met ‘niet geactiveerd’ bedoelen we dat het gezicht je kalm, ontspannen, en/of rustig doet voelen.",Helemaal niet geactiveerd,Zeer geactiveerd,stims/neutral_stims/id-1378_gender-F_age-19.png,19,F,,,,,,,,,,,,,,,,0,4,4,1,0,20,20,48,,,,,,,,,,,,,,,,,,,,,-2,1.034,,,,,,,,,99,M,FALSE,FALSE,2018_okt_15_1409,pilot_RL,29.99706506
rating,arousal,Hoe geactiveerd maakt dit gezicht je?,"Je beoordeelt dit op een schaal van ‘Helemaal niet geactiveerd’ tot ‘Zeer geactiveerd’. Met ‘geactiveerd’ bedoelen we dat het het gezicht je alert, energiek, en/of gespannen doet voelen; met ‘niet geactiveerd’ bedoelen we dat het gezicht je kalm, ontspannen, en/of rustig doet voelen.",Helemaal niet geactiveerd,Zeer geactiveerd,stims/neutral_stims/id-1306_gender-F_age-21.png,21,F,,,,,,,,,,,,,,,,0,4,4,1,0,21,21,19,,,,,,,,,,,,,,,,,,,,,0,3.135,,,,,,,,,99,M,FALSE,FALSE,2018_okt_15_1409,pilot_RL,29.99706506
rating,arousal,Hoe geactiveerd maakt dit gezicht je?,"Je beoordeelt dit op een schaal van ‘Helemaal niet geactiveerd’ tot ‘Zeer geactiveerd’. Met ‘geactiveerd’ bedoelen we dat het het gezicht je alert, energiek, en/of gespannen doet voelen; met ‘niet geactiveerd’ bedoelen we dat het gezicht je kalm, ontspannen, en/of rustig doet voelen.",Helemaal niet geactiveerd,Zeer geactiveerd,stims/neutral_stims/id-1269_gender-F_age-23.png,23,F,,,,,,,,,,,,,,,,0,4,4,1,0,22,22,3,,,,,,,,,,,,,,,,,,,,,2,1.134,,,,,,,,,99,M,FALSE,FALSE,2018_okt_15_1409,pilot_RL,29.99706506
rating,arousal,Hoe geactiveerd maakt dit gezicht je?,"Je beoordeelt dit op een schaal van ‘Helemaal niet geactiveerd’ tot ‘Zeer geactiveerd’. Met ‘geactiveerd’ bedoelen we dat het het gezicht je alert, energiek, en/of gespannen doet voelen; met ‘niet geactiveerd’ bedoelen we dat het gezicht je kalm, ontspannen, en/of rustig doet voelen.",Helemaal niet geactiveerd,Zeer geactiveerd,stims/neutral_stims/id-1373_gender-F_age-30.png,30,F,,,,,,,,,,,,,,,,0,4,4,1,0,23,23,45,,,,,,,,,,,,,,,,,,,,,0,25.733,,,,,,,,,99,M,FALSE,FALSE,2018_okt_15_1409,pilot_RL,29.99706506
rating,arousal,Hoe geactiveerd maakt dit gezicht je?,"Je beoordeelt dit op een schaal van ‘Helemaal niet geactiveerd’ tot ‘Zeer geactiveerd’. Met ‘geactiveerd’ bedoelen we dat het het gezicht je alert, energiek, en/of gespannen doet voelen; met ‘niet geactiveerd’ bedoelen we dat het gezicht je kalm, ontspannen, en/of rustig doet voelen.",Helemaal niet geactiveerd,Zeer geactiveerd,stims/neutral_stims/id-1311_gender-F_age-22.png,22,F,,,,,,,,,,,,,,,,0,4,4,1,0,24,24,23,,,,,,,,,,,,,,,,,,,,,-2,1.868,,,,,,,,,99,M,FALSE,FALSE,2018_okt_15_1409,pilot_RL,29.99706506
rating,arousal,Hoe geactiveerd maakt dit gezicht je?,"Je beoordeelt dit op een schaal van ‘Helemaal niet geactiveerd’ tot ‘Zeer geactiveerd’. Met ‘geactiveerd’ bedoelen we dat het het gezicht je alert, energiek, en/of gespannen doet voelen; met ‘niet geactiveerd’ bedoelen we dat het gezicht je kalm, ontspannen, en/of rustig doet voelen.",Helemaal niet geactiveerd,Zeer geactiveerd,stims/neutral_stims/id-1345_gender-M_age-18.png,18,M,,,,,,,,,,,,,,,,0,4,4,1,0,25,25,32,,,,,,,,,,,,,,,,,,,,,1,1.203,,,,,,,,,99,M,FALSE,FALSE,2018_okt_15_1409,pilot_RL,29.99706506
rating,arousal,Hoe geactiveerd maakt dit gezicht je?,"Je beoordeelt dit op een schaal van ‘Helemaal niet geactiveerd’ tot ‘Zeer geactiveerd’. Met ‘geactiveerd’ bedoelen we dat het het gezicht je alert, energiek, en/of gespannen doet voelen; met ‘niet geactiveerd’ bedoelen we dat het gezicht je kalm, ontspannen, en/of rustig doet voelen.",Helemaal niet geactiveerd,Zeer geactiveerd,stims/neutral_stims/id-1273_gender-F_age-20.png,20,F,,,,,,,,,,,,,,,,0,4,4,1,0,26,26,5,,,,,,,,,,,,,,,,,,,,,-2,1.399,,,,,,,,,99,M,FALSE,FALSE,2018_okt_15_1409,pilot_RL,29.99706506
rating,arousal,Hoe geactiveerd maakt dit gezicht je?,"Je beoordeelt dit op een schaal van ‘Helemaal niet geactiveerd’ tot ‘Zeer geactiveerd’. Met ‘geactiveerd’ bedoelen we dat het het gezicht je alert, energiek, en/of gespannen doet voelen; met ‘niet geactiveerd’ bedoelen we dat het gezicht je kalm, ontspannen, en/of rustig doet voelen.",Helemaal niet geactiveerd,Zeer geactiveerd,stims/neutral_stims/id-1295_gender-F_age-26.png,26,F,,,,,,,,,,,,,,,,0,4,4,1,0,27,27,15,,,,,,,,,,,,,,,,,,,,,2,1.501,,,,,,,,,99,M,FALSE,FALSE,2018_okt_15_1409,pilot_RL,29.99706506
rating,arousal,Hoe geactiveerd maakt dit gezicht je?,"Je beoordeelt dit op een schaal van ‘Helemaal niet geactiveerd’ tot ‘Zeer geactiveerd’. Met ‘geactiveerd’ bedoelen we dat het het gezicht je alert, energiek, en/of gespannen doet voelen; met ‘niet geactiveerd’ bedoelen we dat het gezicht je kalm, ontspannen, en/of rustig doet voelen.",Helemaal niet geactiveerd,Zeer geactiveerd,stims/neutral_stims/id-1260_gender-F_age-22.png,22,F,,,,,,,,,,,,,,,,0,4,4,1,0,28,28,0,,,,,,,,,,,,,,,,,,,,,-2,1.301,,,,,,,,,99,M,FALSE,FALSE,2018_okt_15_1409,pilot_RL,29.99706506
rating,arousal,Hoe geactiveerd maakt dit gezicht je?,"Je beoordeelt dit op een schaal van ‘Helemaal niet geactiveerd’ tot ‘Zeer geactiveerd’. Met ‘geactiveerd’ bedoelen we dat het het gezicht je alert, energiek, en/of gespannen doet voelen; met ‘niet geactiveerd’ bedoelen we dat het gezicht je kalm, ontspannen, en/of rustig doet voelen.",Helemaal niet geactiveerd,Zeer geactiveerd,stims/neutral_stims/id-1376_gender-F_age-19.png,19,F,,,,,,,,,,,,,,,,0,4,4,1,0,29,29,46,,,,,,,,,,,,,,,,,,,,,0,0.901,,,,,,,,,99,M,FALSE,FALSE,2018_okt_15_1409,pilot_RL,29.99706506
rating,arousal,Hoe geactiveerd maakt dit gezicht je?,"Je beoordeelt dit op een schaal van ‘Helemaal niet geactiveerd’ tot ‘Zeer geactiveerd’. Met ‘geactiveerd’ bedoelen we dat het het gezicht je alert, energiek, en/of gespannen doet voelen; met ‘niet geactiveerd’ bedoelen we dat het gezicht je kalm, ontspannen, en/of rustig doet voelen.",Helemaal niet geactiveerd,Zeer geactiveerd,stims/neutral_stims/id-1279_gender-F_age-19.png,19,F,,,,,,,,,,,,,,,,0,4,4,1,0,30,30,7,,,,,,,,,,,,,,,,,,,,,0,0.934,,,,,,,,,99,M,FALSE,FALSE,2018_okt_15_1409,pilot_RL,29.99706506
rating,arousal,Hoe geactiveerd maakt dit gezicht je?,"Je beoordeelt dit op een schaal van ‘Helemaal niet geactiveerd’ tot ‘Zeer geactiveerd’. Met ‘geactiveerd’ bedoelen we dat het het gezicht je alert, energiek, en/of gespannen doet voelen; met ‘niet geactiveerd’ bedoelen we dat het gezicht je kalm, ontspannen, en/of rustig doet voelen.",Helemaal niet geactiveerd,Zeer geactiveerd,stims/neutral_stims/id-1315_gender-M_age-16.png,16,M,,,,,,,,,,,,,,,,0,4,4,1,0,31,31,24,,,,,,,,,,,,,,,,,,,,,1,1.634,,,,,,,,,99,M,FALSE,FALSE,2018_okt_15_1409,pilot_RL,29.99706506
rating,arousal,Hoe geactiveerd maakt dit gezicht je?,"Je beoordeelt dit op een schaal van ‘Helemaal niet geactiveerd’ tot ‘Zeer geactiveerd’. Met ‘geactiveerd’ bedoelen we dat het het gezicht je alert, energiek, en/of gespannen doet voelen; met ‘niet geactiveerd’ bedoelen we dat het gezicht je kalm, ontspannen, en/of rustig doet voelen.",Helemaal niet geactiveerd,Zeer geactiveerd,stims/neutral_stims/id-1342_gender-M_age-19.png,19,M,,,,,,,,,,,,,,,,0,4,4,1,0,32,32,30,,,,,,,,,,,,,,,,,,,,,3,1.799,,,,,,,,,99,M,FALSE,FALSE,2018_okt_15_1409,pilot_RL,29.99706506
rating,arousal,Hoe geactiveerd maakt dit gezicht je?,"Je beoordeelt dit op een schaal van ‘Helemaal niet geactiveerd’ tot ‘Zeer geactiveerd’. Met ‘geactiveerd’ bedoelen we dat het het gezicht je alert, energiek, en/of gespannen doet voelen; met ‘niet geactiveerd’ bedoelen we dat het gezicht je kalm, ontspannen, en/of rustig doet voelen.",Helemaal niet geactiveerd,Zeer geactiveerd,stims/neutral_stims/id-1377_gender-M_age-20.png,20,M,,,,,,,,,,,,,,,,0,4,4,1,0,33,33,47,,,,,,,,,,,,,,,,,,,,,1,7.533,,,,,,,,,99,M,FALSE,FALSE,2018_okt_15_1409,pilot_RL,29.99706506
rating,arousal,Hoe geactiveerd maakt dit gezicht je?,"Je beoordeelt dit op een schaal van ‘Helemaal niet geactiveerd’ tot ‘Zeer geactiveerd’. Met ‘geactiveerd’ bedoelen we dat het het gezicht je alert, energiek, en/of gespannen doet voelen; met ‘niet geactiveerd’ bedoelen we dat het gezicht je kalm, ontspannen, en/of rustig doet voelen.",Helemaal niet geactiveerd,Zeer geactiveerd,stims/neutral_stims/id-1302_gender-F_age-30.png,30,F,,,,,,,,,,,,,,,,0,4,4,1,0,34,34,18,,,,,,,,,,,,,,,,,,,,,0,1.334,,,,,,,,,99,M,FALSE,FALSE,2018_okt_15_1409,pilot_RL,29.99706506
rating,arousal,Hoe geactiveerd maakt dit gezicht je?,"Je beoordeelt dit op een schaal van ‘Helemaal niet geactiveerd’ tot ‘Zeer geactiveerd’. Met ‘geactiveerd’ bedoelen we dat het het gezicht je alert, energiek, en/of gespannen doet voelen; met ‘niet geactiveerd’ bedoelen we dat het gezicht je kalm, ontspannen, en/of rustig doet voelen.",Helemaal niet geactiveerd,Zeer geactiveerd,stims/neutral_stims/id-1341_gender-M_age-19.png,19,M,,,,,,,,,,,,,,,,0,4,4,1,0,35,35,29,,,,,,,,,,,,,,,,,,,,,-1,2.868,,,,,,,,,99,M,FALSE,FALSE,2018_okt_15_1409,pilot_RL,29.99706506
rating,arousal,Hoe geactiveerd maakt dit gezicht je?,"Je beoordeelt dit op een schaal van ‘Helemaal niet geactiveerd’ tot ‘Zeer geactiveerd’. Met ‘geactiveerd’ bedoelen we dat het het gezicht je alert, energiek, en/of gespannen doet voelen; met ‘niet geactiveerd’ bedoelen we dat het gezicht je kalm, ontspannen, en/of rustig doet voelen.",Helemaal niet geactiveerd,Zeer geactiveerd,stims/neutral_stims/id-1307_gender-F_age-22.png,22,F,,,,,,,,,,,,,,,,0,4,4,1,0,36,36,20,,,,,,,,,,,,,,,,,,,,,0,1.935,,,,,,,,,99,M,FALSE,FALSE,2018_okt_15_1409,pilot_RL,29.99706506
rating,arousal,Hoe geactiveerd maakt dit gezicht je?,"Je beoordeelt dit op een schaal van ‘Helemaal niet geactiveerd’ tot ‘Zeer geactiveerd’. Met ‘geactiveerd’ bedoelen we dat het het gezicht je alert, energiek, en/of gespannen doet voelen; met ‘niet geactiveerd’ bedoelen we dat het gezicht je kalm, ontspannen, en/of rustig doet voelen.",Helemaal niet geactiveerd,Zeer geactiveerd,stims/neutral_stims/id-1366_gender-F_age-24.png,24,F,,,,,,,,,,,,,,,,0,4,4,1,0,37,37,42,,,,,,,,,,,,,,,,,,,,,-1,4.667,,,,,,,,,99,M,FALSE,FALSE,2018_okt_15_1409,pilot_RL,29.99706506
rating,arousal,Hoe geactiveerd maakt dit gezicht je?,"Je beoordeelt dit op een schaal van ‘Helemaal niet geactiveerd’ tot ‘Zeer geactiveerd’. Met ‘geactiveerd’ bedoelen we dat het het gezicht je alert, energiek, en/of gespannen doet voelen; met ‘niet geactiveerd’ bedoelen we dat het gezicht je kalm, ontspannen, en/of rustig doet voelen.",Helemaal niet geactiveerd,Zeer geactiveerd,stims/neutral_stims/id-1335_gender-M_age-23.png,23,M,,,,,,,,,,,,,,,,0,4,4,1,0,38,38,27,,,,,,,,,,,,,,,,,,,,,0,0.901,,,,,,,,,99,M,FALSE,FALSE,2018_okt_15_1409,pilot_RL,29.99706506
rating,arousal,Hoe geactiveerd maakt dit gezicht je?,"Je beoordeelt dit op een schaal van ‘Helemaal niet geactiveerd’ tot ‘Zeer geactiveerd’. Met ‘geactiveerd’ bedoelen we dat het het gezicht je alert, energiek, en/of gespannen doet voelen; met ‘niet geactiveerd’ bedoelen we dat het gezicht je kalm, ontspannen, en/of rustig doet voelen.",Helemaal niet geactiveerd,Zeer geactiveerd,stims/neutral_stims/id-1362_gender-F_age-24.png,24,F,,,,,,,,,,,,,,,,0,4,4,1,0,39,39,40,,,,,,,,,,,,,,,,,,,,,1,1.101,,,,,,,,,99,M,FALSE,FALSE,2018_okt_15_1409,pilot_RL,29.99706506
rating,arousal,Hoe geactiveerd maakt dit gezicht je?,"Je beoordeelt dit op een schaal van ‘Helemaal niet geactiveerd’ tot ‘Zeer geactiveerd’. Met ‘geactiveerd’ bedoelen we dat het het gezicht je alert, energiek, en/of gespannen doet voelen; met ‘niet geactiveerd’ bedoelen we dat het gezicht je kalm, ontspannen, en/of rustig doet voelen.",Helemaal niet geactiveerd,Zeer geactiveerd,stims/neutral_stims/id-1280_gender-M_age-18.png,18,M,,,,,,,,,,,,,,,,0,4,4,1,0,40,40,8,,,,,,,,,,,,,,,,,,,,,2,1.166,,,,,,,,,99,M,FALSE,FALSE,2018_okt_15_1409,pilot_RL,29.99706506
rating,arousal,Hoe geactiveerd maakt dit gezicht je?,"Je beoordeelt dit op een schaal van ‘Helemaal niet geactiveerd’ tot ‘Zeer geactiveerd’. Met ‘geactiveerd’ bedoelen we dat het het gezicht je alert, energiek, en/of gespannen doet voelen; met ‘niet geactiveerd’ bedoelen we dat het gezicht je kalm, ontspannen, en/of rustig doet voelen.",Helemaal niet geactiveerd,Zeer geactiveerd,stims/neutral_stims/id-1347_gender-F_age-27.png,27,F,,,,,,,,,,,,,,,,0,4,4,1,0,41,41,33,,,,,,,,,,,,,,,,,,,,,1,1.236,,,,,,,,,99,M,FALSE,FALSE,2018_okt_15_1409,pilot_RL,29.99706506
rating,arousal,Hoe geactiveerd maakt dit gezicht je?,"Je beoordeelt dit op een schaal van ‘Helemaal niet geactiveerd’ tot ‘Zeer geactiveerd’. Met ‘geactiveerd’ bedoelen we dat het het gezicht je alert, energiek, en/of gespannen doet voelen; met ‘niet geactiveerd’ bedoelen we dat het gezicht je kalm, ontspannen, en/of rustig doet voelen.",Helemaal niet geactiveerd,Zeer geactiveerd,stims/neutral_stims/id-1290_gender-F_age-23.png,23,F,,,,,,,,,,,,,,,,0,4,4,1,0,42,42,11,,,,,,,,,,,,,,,,,,,,,3,1.299,,,,,,,,,99,M,FALSE,FALSE,2018_okt_15_1409,pilot_RL,29.99706506
rating,arousal,Hoe geactiveerd maakt dit gezicht je?,"Je beoordeelt dit op een schaal van ‘Helemaal niet geactiveerd’ tot ‘Zeer geactiveerd’. Met ‘geactiveerd’ bedoelen we dat het het gezicht je alert, energiek, en/of gespannen doet voelen; met ‘niet geactiveerd’ bedoelen we dat het gezicht je kalm, ontspannen, en/of rustig doet voelen.",Helemaal niet geactiveerd,Zeer geactiveerd,stims/neutral_stims/id-1294_gender-F_age-26.png,26,F,,,,,,,,,,,,,,,,0,4,4,1,0,43,43,14,,,,,,,,,,,,,,,,,,,,,-2,2.566,,,,,,,,,99,M,FALSE,FALSE,2018_okt_15_1409,pilot_RL,29.99706506
rating,arousal,Hoe geactiveerd maakt dit gezicht je?,"Je beoordeelt dit op een schaal van ‘Helemaal niet geactiveerd’ tot ‘Zeer geactiveerd’. Met ‘geactiveerd’ bedoelen we dat het het gezicht je alert, energiek, en/of gespannen doet voelen; met ‘niet geactiveerd’ bedoelen we dat het gezicht je kalm, ontspannen, en/of rustig doet voelen.",Helemaal niet geactiveerd,Zeer geactiveerd,stims/neutral_stims/id-1296_gender-F_age-23.png,23,F,,,,,,,,,,,,,,,,0,4,4,1,0,44,44,16,,,,,,,,,,,,,,,,,,,,,1,2.268,,,,,,,,,99,M,FALSE,FALSE,2018_okt_15_1409,pilot_RL,29.99706506
rating,arousal,Hoe geactiveerd maakt dit gezicht je?,"Je beoordeelt dit op een schaal van ‘Helemaal niet geactiveerd’ tot ‘Zeer geactiveerd’. Met ‘geactiveerd’ bedoelen we dat het het gezicht je alert, energiek, en/of gespannen doet voelen; met ‘niet geactiveerd’ bedoelen we dat het gezicht je kalm, ontspannen, en/of rustig doet voelen.",Helemaal niet geactiveerd,Zeer geactiveerd,stims/neutral_stims/id-1361_gender-F_age-19.png,19,F,,,,,,,,,,,,,,,,0,4,4,1,0,45,45,39,,,,,,,,,,,,,,,,,,,,,1,1.136,,,,,,,,,99,M,FALSE,FALSE,2018_okt_15_1409,pilot_RL,29.99706506
rating,arousal,Hoe geactiveerd maakt dit gezicht je?,"Je beoordeelt dit op een schaal van ‘Helemaal niet geactiveerd’ tot ‘Zeer geactiveerd’. Met ‘geactiveerd’ bedoelen we dat het het gezicht je alert, energiek, en/of gespannen doet voelen; met ‘niet geactiveerd’ bedoelen we dat het gezicht je kalm, ontspannen, en/of rustig doet voelen.",Helemaal niet geactiveerd,Zeer geactiveerd,stims/neutral_stims/id-1355_gender-F_age-19.png,19,F,,,,,,,,,,,,,,,,0,4,4,1,0,46,46,35,,,,,,,,,,,,,,,,,,,,,0,0.899,,,,,,,,,99,M,FALSE,FALSE,2018_okt_15_1409,pilot_RL,29.99706506
rating,arousal,Hoe geactiveerd maakt dit gezicht je?,"Je beoordeelt dit op een schaal van ‘Helemaal niet geactiveerd’ tot ‘Zeer geactiveerd’. Met ‘geactiveerd’ bedoelen we dat het het gezicht je alert, energiek, en/of gespannen doet voelen; met ‘niet geactiveerd’ bedoelen we dat het gezicht je kalm, ontspannen, en/of rustig doet voelen.",Helemaal niet geactiveerd,Zeer geactiveerd,stims/neutral_stims/id-1291_gender-F_age-24.png,24,F,,,,,,,,,,,,,,,,0,4,4,1,0,47,47,12,,,,,,,,,,,,,,,,,,,,,2,1.168,,,,,,,,,99,M,FALSE,FALSE,2018_okt_15_1409,pilot_RL,29.99706506
rating,arousal,Hoe geactiveerd maakt dit gezicht je?,"Je beoordeelt dit op een schaal van ‘Helemaal niet geactiveerd’ tot ‘Zeer geactiveerd’. Met ‘geactiveerd’ bedoelen we dat het het gezicht je alert, energiek, en/of gespannen doet voelen; met ‘niet geactiveerd’ bedoelen we dat het gezicht je kalm, ontspannen, en/of rustig doet voelen.",Helemaal niet geactiveerd,Zeer geactiveerd,stims/neutral_stims/id-1270_gender-F_age-30.png,30,F,,,,,,,,,,,,,,,,0,4,4,1,0,48,48,4,,,,,,,,,,,,,,,,,,,,,0,0.934,,,,,,,,,99,M,FALSE,FALSE,2018_okt_15_1409,pilot_RL,29.99706506
