phase,rating_attribute,rating_question,rating_question_details,rating_low,rating_high,stim_file,age,gender,pre_rating_scales_loop.thisRepN,pre_rating_scales_loop.thisTrialN,pre_rating_scales_loop.thisN,pre_rating_scales_loop.thisIndex,pre_rating_stims_loop.thisRepN,pre_rating_stims_loop.thisTrialN,pre_rating_stims_loop.thisN,pre_rating_stims_loop.thisIndex,pre_rating_scale.response,pre_rating_scale.rt,participant,participant_gender,skip_practice,skip_ratings,date,expName,frameRate,
rating,valence,Hoe ervaar jij dit gezicht?,Je beoordeelt dit op een schaal van 'Zeer onprettig' tot 'Zeer prettig'.,Zeer onprettig,Zeer prettig,stims\neutral_stims\id-1339_gender-F_age-30.png,30,F,0,0,0,1,0,0,0,28,-1,6.251,01,F,False,False,2018_Oct_17_1257,pilot_RL,119.8881957439051,
rating,valence,Hoe ervaar jij dit gezicht?,Je beoordeelt dit op een schaal van 'Zeer onprettig' tot 'Zeer prettig'.,Zeer onprettig,Zeer prettig,stims\neutral_stims\id-1362_gender-F_age-24.png,24,F,0,0,0,1,0,1,1,40,0,7.127,01,F,False,False,2018_Oct_17_1257,pilot_RL,119.8881957439051,
rating,valence,Hoe ervaar jij dit gezicht?,Je beoordeelt dit op een schaal van 'Zeer onprettig' tot 'Zeer prettig'.,Zeer onprettig,Zeer prettig,stims\neutral_stims\id-1274_gender-F_age-33.png,33,F,0,0,0,1,0,2,2,6,-2,2.801,01,F,False,False,2018_Oct_17_1257,pilot_RL,119.8881957439051,
rating,valence,Hoe ervaar jij dit gezicht?,Je beoordeelt dit op een schaal van 'Zeer onprettig' tot 'Zeer prettig'.,Zeer onprettig,Zeer prettig,stims\neutral_stims\id-1290_gender-F_age-23.png,23,F,0,0,0,1,0,3,3,11,-1,5.51,01,F,False,False,2018_Oct_17_1257,pilot_RL,119.8881957439051,
rating,valence,Hoe ervaar jij dit gezicht?,Je beoordeelt dit op een schaal van 'Zeer onprettig' tot 'Zeer prettig'.,Zeer onprettig,Zeer prettig,stims\neutral_stims\id-1306_gender-F_age-21.png,21,F,0,0,0,1,0,4,4,19,0,5.068,01,F,False,False,2018_Oct_17_1257,pilot_RL,119.8881957439051,
rating,valence,Hoe ervaar jij dit gezicht?,Je beoordeelt dit op een schaal van 'Zeer onprettig' tot 'Zeer prettig'.,Zeer onprettig,Zeer prettig,stims\neutral_stims\id-1345_gender-M_age-18.png,18,M,0,0,0,1,0,5,5,32,0,1.468,01,F,False,False,2018_Oct_17_1257,pilot_RL,119.8881957439051,
rating,valence,Hoe ervaar jij dit gezicht?,Je beoordeelt dit op een schaal van 'Zeer onprettig' tot 'Zeer prettig'.,Zeer onprettig,Zeer prettig,stims\neutral_stims\id-1376_gender-F_age-19.png,19,F,0,0,0,1,0,6,6,46,2,5.852,01,F,False,False,2018_Oct_17_1257,pilot_RL,119.8881957439051,
rating,valence,Hoe ervaar jij dit gezicht?,Je beoordeelt dit op een schaal van 'Zeer onprettig' tot 'Zeer prettig'.,Zeer onprettig,Zeer prettig,stims\neutral_stims\id-1367_gender-M_age-20.png,20,M,0,0,0,1,0,7,7,43,1,5.801,01,F,False,False,2018_Oct_17_1257,pilot_RL,119.8881957439051,
rating,valence,Hoe ervaar jij dit gezicht?,Je beoordeelt dit op een schaal van 'Zeer onprettig' tot 'Zeer prettig'.,Zeer onprettig,Zeer prettig,stims\neutral_stims\id-1302_gender-F_age-30.png,30,F,0,0,0,1,0,8,8,18,1,3.26,01,F,False,False,2018_Oct_17_1257,pilot_RL,119.8881957439051,
rating,valence,Hoe ervaar jij dit gezicht?,Je beoordeelt dit op een schaal van 'Zeer onprettig' tot 'Zeer prettig'.,Zeer onprettig,Zeer prettig,stims\neutral_stims\id-1260_gender-F_age-22.png,22,F,0,0,0,1,0,9,9,0,0,4.068,01,F,False,False,2018_Oct_17_1257,pilot_RL,119.8881957439051,
rating,valence,Hoe ervaar jij dit gezicht?,Je beoordeelt dit op een schaal van 'Zeer onprettig' tot 'Zeer prettig'.,Zeer onprettig,Zeer prettig,stims\neutral_stims\id-1360_gender-F_age-20.png,20,F,0,0,0,1,0,10,10,38,1,2.493,01,F,False,False,2018_Oct_17_1257,pilot_RL,119.8881957439051,
rating,valence,Hoe ervaar jij dit gezicht?,Je beoordeelt dit op een schaal van 'Zeer onprettig' tot 'Zeer prettig'.,Zeer onprettig,Zeer prettig,stims\neutral_stims\id-1323_gender-F_age-23.png,23,F,0,0,0,1,0,11,11,26,1,2.051,01,F,False,False,2018_Oct_17_1257,pilot_RL,119.8881957439051,
rating,valence,Hoe ervaar jij dit gezicht?,Je beoordeelt dit op een schaal van 'Zeer onprettig' tot 'Zeer prettig'.,Zeer onprettig,Zeer prettig,stims\neutral_stims\id-1380_gender-F_age-21.png,21,F,0,0,0,1,0,12,12,49,1,2.818,01,F,False,False,2018_Oct_17_1257,pilot_RL,119.8881957439051,
rating,valence,Hoe ervaar jij dit gezicht?,Je beoordeelt dit op een schaal van 'Zeer onprettig' tot 'Zeer prettig'.,Zeer onprettig,Zeer prettig,stims\neutral_stims\id-1355_gender-F_age-19.png,19,F,0,0,0,1,0,13,13,35,-1,5.918,01,F,False,False,2018_Oct_17_1257,pilot_RL,119.8881957439051,
rating,valence,Hoe ervaar jij dit gezicht?,Je beoordeelt dit op een schaal van 'Zeer onprettig' tot 'Zeer prettig'.,Zeer onprettig,Zeer prettig,stims\neutral_stims\id-1310_gender-F_age-28.png,28,F,0,0,0,1,0,14,14,22,-1,2.184,01,F,False,False,2018_Oct_17_1257,pilot_RL,119.8881957439051,
rating,valence,Hoe ervaar jij dit gezicht?,Je beoordeelt dit op een schaal van 'Zeer onprettig' tot 'Zeer prettig'.,Zeer onprettig,Zeer prettig,stims\neutral_stims\id-1341_gender-M_age-19.png,19,M,0,0,0,1,0,15,15,29,0,6.627,01,F,False,False,2018_Oct_17_1257,pilot_RL,119.8881957439051,
rating,valence,Hoe ervaar jij dit gezicht?,Je beoordeelt dit op een schaal van 'Zeer onprettig' tot 'Zeer prettig'.,Zeer onprettig,Zeer prettig,stims\neutral_stims\id-1377_gender-M_age-20.png,20,M,0,0,0,1,0,16,16,47,0,4.693,01,F,False,False,2018_Oct_17_1257,pilot_RL,119.8881957439051,
rating,valence,Hoe ervaar jij dit gezicht?,Je beoordeelt dit op een schaal van 'Zeer onprettig' tot 'Zeer prettig'.,Zeer onprettig,Zeer prettig,stims\neutral_stims\id-1279_gender-F_age-19.png,19,F,0,0,0,1,0,17,17,7,1,5.718,01,F,False,False,2018_Oct_17_1257,pilot_RL,119.8881957439051,
rating,valence,Hoe ervaar jij dit gezicht?,Je beoordeelt dit op een schaal van 'Zeer onprettig' tot 'Zeer prettig'.,Zeer onprettig,Zeer prettig,stims\neutral_stims\id-1344_gender-M_age-25.png,25,M,0,0,0,1,0,18,18,31,-1,3.568,01,F,False,False,2018_Oct_17_1257,pilot_RL,119.8881957439051,
rating,valence,Hoe ervaar jij dit gezicht?,Je beoordeelt dit op een schaal van 'Zeer onprettig' tot 'Zeer prettig'.,Zeer onprettig,Zeer prettig,stims\neutral_stims\id-1354_gender-F_age-23.png,23,F,0,0,0,1,0,19,19,34,-1,5.135,01,F,False,False,2018_Oct_17_1257,pilot_RL,119.8881957439051,
rating,valence,Hoe ervaar jij dit gezicht?,Je beoordeelt dit op een schaal van 'Zeer onprettig' tot 'Zeer prettig'.,Zeer onprettig,Zeer prettig,stims\neutral_stims\id-1358_gender-F_age-32.png,32,F,0,0,0,1,0,20,20,37,0,2.793,01,F,False,False,2018_Oct_17_1257,pilot_RL,119.8881957439051,
rating,valence,Hoe ervaar jij dit gezicht?,Je beoordeelt dit op een schaal van 'Zeer onprettig' tot 'Zeer prettig'.,Zeer onprettig,Zeer prettig,stims\neutral_stims\id-1294_gender-F_age-26.png,26,F,0,0,0,1,0,21,21,14,-1,6.31,01,F,False,False,2018_Oct_17_1257,pilot_RL,119.8881957439051,
rating,valence,Hoe ervaar jij dit gezicht?,Je beoordeelt dit op een schaal van 'Zeer onprettig' tot 'Zeer prettig'.,Zeer onprettig,Zeer prettig,stims\neutral_stims\id-1295_gender-F_age-26.png,26,F,0,0,0,1,0,22,22,15,-2,4.993,01,F,False,False,2018_Oct_17_1257,pilot_RL,119.8881957439051,
rating,valence,Hoe ervaar jij dit gezicht?,Je beoordeelt dit op een schaal van 'Zeer onprettig' tot 'Zeer prettig'.,Zeer onprettig,Zeer prettig,stims\neutral_stims\id-1370_gender-M_age-19.png,19,M,0,0,0,1,0,23,23,44,2,2.893,01,F,False,False,2018_Oct_17_1257,pilot_RL,119.8881957439051,
rating,valence,Hoe ervaar jij dit gezicht?,Je beoordeelt dit op een schaal van 'Zeer onprettig' tot 'Zeer prettig'.,Zeer onprettig,Zeer prettig,stims\neutral_stims\id-1297_gender-F_age-22.png,22,F,0,0,0,1,0,24,24,17,1,6.351,01,F,False,False,2018_Oct_17_1257,pilot_RL,119.8881957439051,
rating,valence,Hoe ervaar jij dit gezicht?,Je beoordeelt dit op een schaal van 'Zeer onprettig' tot 'Zeer prettig'.,Zeer onprettig,Zeer prettig,stims\neutral_stims\id-1280_gender-M_age-18.png,18,M,0,0,0,1,0,25,25,8,-1,2.001,01,F,False,False,2018_Oct_17_1257,pilot_RL,119.8881957439051,
rating,valence,Hoe ervaar jij dit gezicht?,Je beoordeelt dit op een schaal van 'Zeer onprettig' tot 'Zeer prettig'.,Zeer onprettig,Zeer prettig,stims\neutral_stims\id-1347_gender-F_age-27.png,27,F,0,0,0,1,0,26,26,33,-2,2.251,01,F,False,False,2018_Oct_17_1257,pilot_RL,119.8881957439051,
rating,valence,Hoe ervaar jij dit gezicht?,Je beoordeelt dit op een schaal van 'Zeer onprettig' tot 'Zeer prettig'.,Zeer onprettig,Zeer prettig,stims\neutral_stims\id-1296_gender-F_age-23.png,23,F,0,0,0,1,0,27,27,16,-2,2.876,01,F,False,False,2018_Oct_17_1257,pilot_RL,119.8881957439051,
rating,valence,Hoe ervaar jij dit gezicht?,Je beoordeelt dit op een schaal van 'Zeer onprettig' tot 'Zeer prettig'.,Zeer onprettig,Zeer prettig,stims\neutral_stims\id-1363_gender-M_age-19.png,19,M,0,0,0,1,0,28,28,41,-1,6.16,01,F,False,False,2018_Oct_17_1257,pilot_RL,119.8881957439051,
rating,valence,Hoe ervaar jij dit gezicht?,Je beoordeelt dit op een schaal van 'Zeer onprettig' tot 'Zeer prettig'.,Zeer onprettig,Zeer prettig,stims\neutral_stims\id-1335_gender-M_age-23.png,23,M,0,0,0,1,0,29,29,27,1,2.301,01,F,False,False,2018_Oct_17_1257,pilot_RL,119.8881957439051,
rating,valence,Hoe ervaar jij dit gezicht?,Je beoordeelt dit op een schaal van 'Zeer onprettig' tot 'Zeer prettig'.,Zeer onprettig,Zeer prettig,stims\neutral_stims\id-1311_gender-F_age-22.png,22,F,0,0,0,1,0,30,30,23,2,1.734,01,F,False,False,2018_Oct_17_1257,pilot_RL,119.8881957439051,
rating,valence,Hoe ervaar jij dit gezicht?,Je beoordeelt dit op een schaal van 'Zeer onprettig' tot 'Zeer prettig'.,Zeer onprettig,Zeer prettig,stims\neutral_stims\id-1373_gender-F_age-30.png,30,F,0,0,0,1,0,31,31,45,1,2.059,01,F,False,False,2018_Oct_17_1257,pilot_RL,119.8881957439051,
rating,valence,Hoe ervaar jij dit gezicht?,Je beoordeelt dit op een schaal van 'Zeer onprettig' tot 'Zeer prettig'.,Zeer onprettig,Zeer prettig,stims\neutral_stims\id-1285_gender-F_age-19.png,19,F,0,0,0,1,0,32,32,9,-1,4.993,01,F,False,False,2018_Oct_17_1257,pilot_RL,119.8881957439051,
rating,valence,Hoe ervaar jij dit gezicht?,Je beoordeelt dit op een schaal van 'Zeer onprettig' tot 'Zeer prettig'.,Zeer onprettig,Zeer prettig,stims\neutral_stims\id-1291_gender-F_age-24.png,24,F,0,0,0,1,0,33,33,12,2,3.11,01,F,False,False,2018_Oct_17_1257,pilot_RL,119.8881957439051,
rating,valence,Hoe ervaar jij dit gezicht?,Je beoordeelt dit op een schaal van 'Zeer onprettig' tot 'Zeer prettig'.,Zeer onprettig,Zeer prettig,stims\neutral_stims\id-1270_gender-F_age-30.png,30,F,0,0,0,1,0,34,34,4,2,3.893,01,F,False,False,2018_Oct_17_1257,pilot_RL,119.8881957439051,
rating,valence,Hoe ervaar jij dit gezicht?,Je beoordeelt dit op een schaal van 'Zeer onprettig' tot 'Zeer prettig'.,Zeer onprettig,Zeer prettig,stims\neutral_stims\id-1269_gender-F_age-23.png,23,F,0,0,0,1,0,35,35,3,-2,2.759,01,F,False,False,2018_Oct_17_1257,pilot_RL,119.8881957439051,
rating,valence,Hoe ervaar jij dit gezicht?,Je beoordeelt dit op een schaal van 'Zeer onprettig' tot 'Zeer prettig'.,Zeer onprettig,Zeer prettig,stims\neutral_stims\id-1309_gender-M_age-22.png,22,M,0,0,0,1,0,36,36,21,-2,3.384,01,F,False,False,2018_Oct_17_1257,pilot_RL,119.8881957439051,
rating,valence,Hoe ervaar jij dit gezicht?,Je beoordeelt dit op een schaal van 'Zeer onprettig' tot 'Zeer prettig'.,Zeer onprettig,Zeer prettig,stims\neutral_stims\id-1293_gender-F_age-31.png,31,F,0,0,0,1,0,37,37,13,-1,7.86,01,F,False,False,2018_Oct_17_1257,pilot_RL,119.8881957439051,
rating,valence,Hoe ervaar jij dit gezicht?,Je beoordeelt dit op een schaal van 'Zeer onprettig' tot 'Zeer prettig'.,Zeer onprettig,Zeer prettig,stims\neutral_stims\id-1273_gender-F_age-20.png,20,F,0,0,0,1,0,38,38,5,2,1.576,01,F,False,False,2018_Oct_17_1257,pilot_RL,119.8881957439051,
rating,valence,Hoe ervaar jij dit gezicht?,Je beoordeelt dit op een schaal van 'Zeer onprettig' tot 'Zeer prettig'.,Zeer onprettig,Zeer prettig,stims\neutral_stims\id-1342_gender-M_age-19.png,19,M,0,0,0,1,0,39,39,30,-1,1.534,01,F,False,False,2018_Oct_17_1257,pilot_RL,119.8881957439051,
rating,valence,Hoe ervaar jij dit gezicht?,Je beoordeelt dit op een schaal van 'Zeer onprettig' tot 'Zeer prettig'.,Zeer onprettig,Zeer prettig,stims\neutral_stims\id-1289_gender-F_age-20.png,20,F,0,0,0,1,0,40,40,10,1,2.251,01,F,False,False,2018_Oct_17_1257,pilot_RL,119.8881957439051,
rating,valence,Hoe ervaar jij dit gezicht?,Je beoordeelt dit op een schaal van 'Zeer onprettig' tot 'Zeer prettig'.,Zeer onprettig,Zeer prettig,stims\neutral_stims\id-1318_gender-M_age-35.png,35,M,0,0,0,1,0,41,41,25,-2,2.559,01,F,False,False,2018_Oct_17_1257,pilot_RL,119.8881957439051,
rating,valence,Hoe ervaar jij dit gezicht?,Je beoordeelt dit op een schaal van 'Zeer onprettig' tot 'Zeer prettig'.,Zeer onprettig,Zeer prettig,stims\neutral_stims\id-1264_gender-F_age-26.png,26,F,0,0,0,1,0,42,42,1,0,2.343,01,F,False,False,2018_Oct_17_1257,pilot_RL,119.8881957439051,
rating,valence,Hoe ervaar jij dit gezicht?,Je beoordeelt dit op een schaal van 'Zeer onprettig' tot 'Zeer prettig'.,Zeer onprettig,Zeer prettig,stims\neutral_stims\id-1366_gender-F_age-24.png,24,F,0,0,0,1,0,43,43,42,2,2.084,01,F,False,False,2018_Oct_17_1257,pilot_RL,119.8881957439051,
rating,valence,Hoe ervaar jij dit gezicht?,Je beoordeelt dit op een schaal van 'Zeer onprettig' tot 'Zeer prettig'.,Zeer onprettig,Zeer prettig,stims\neutral_stims\id-1315_gender-M_age-16.png,16,M,0,0,0,1,0,44,44,24,-2,4.943,01,F,False,False,2018_Oct_17_1257,pilot_RL,119.8881957439051,
rating,valence,Hoe ervaar jij dit gezicht?,Je beoordeelt dit op een schaal van 'Zeer onprettig' tot 'Zeer prettig'.,Zeer onprettig,Zeer prettig,stims\neutral_stims\id-1307_gender-F_age-22.png,22,F,0,0,0,1,0,45,45,20,1,4.068,01,F,False,False,2018_Oct_17_1257,pilot_RL,119.8881957439051,
rating,valence,Hoe ervaar jij dit gezicht?,Je beoordeelt dit op een schaal van 'Zeer onprettig' tot 'Zeer prettig'.,Zeer onprettig,Zeer prettig,stims\neutral_stims\id-1378_gender-F_age-19.png,19,F,0,0,0,1,0,46,46,48,1,2.376,01,F,False,False,2018_Oct_17_1257,pilot_RL,119.8881957439051,
rating,valence,Hoe ervaar jij dit gezicht?,Je beoordeelt dit op een schaal van 'Zeer onprettig' tot 'Zeer prettig'.,Zeer onprettig,Zeer prettig,stims\neutral_stims\id-1361_gender-F_age-19.png,19,F,0,0,0,1,0,47,47,39,1,3.384,01,F,False,False,2018_Oct_17_1257,pilot_RL,119.8881957439051,
rating,valence,Hoe ervaar jij dit gezicht?,Je beoordeelt dit op een schaal van 'Zeer onprettig' tot 'Zeer prettig'.,Zeer onprettig,Zeer prettig,stims\neutral_stims\id-1266_gender-M_age-21.png,21,M,0,0,0,1,0,48,48,2,0,2.801,01,F,False,False,2018_Oct_17_1257,pilot_RL,119.8881957439051,
rating,valence,Hoe ervaar jij dit gezicht?,Je beoordeelt dit op een schaal van 'Zeer onprettig' tot 'Zeer prettig'.,Zeer onprettig,Zeer prettig,stims\neutral_stims\id-1356_gender-F_age-20.png,20,F,0,0,0,1,0,49,49,36,1,1.885,01,F,False,False,2018_Oct_17_1257,pilot_RL,119.8881957439051,
rating,valence,Hoe ervaar jij dit gezicht?,Je beoordeelt dit op een schaal van 'Zeer onprettig' tot 'Zeer prettig'.,Zeer onprettig,Zeer prettig,,,,0,0,0,1,,,,,,,01,F,False,False,2018_Oct_17_1257,pilot_RL,119.8881957439051,
rating,arousal,Hoe geactiveerd maakt dit gezicht je?,Je beoordeelt dit op een schaal van 'Helemaal niet geactiveerd' tot 'Zeer geactiveerd'. Met 'geactiveerd' bedoelen we dat het het gezicht je alert/energiek/gespannen doet voelen. Met 'niet geactiveerd' bedoelen we dat het gezicht je kalm/ontspannen/rustig doet voelen.,Helemaal niet geactiveerd,Zeer geactiveerd,stims\neutral_stims\id-1358_gender-F_age-32.png,32,F,0,1,1,0,0,0,0,37,0,1.976,01,F,False,False,2018_Oct_17_1257,pilot_RL,119.8881957439051,
rating,arousal,Hoe geactiveerd maakt dit gezicht je?,Je beoordeelt dit op een schaal van 'Helemaal niet geactiveerd' tot 'Zeer geactiveerd'. Met 'geactiveerd' bedoelen we dat het het gezicht je alert/energiek/gespannen doet voelen. Met 'niet geactiveerd' bedoelen we dat het gezicht je kalm/ontspannen/rustig doet voelen.,Helemaal niet geactiveerd,Zeer geactiveerd,stims\neutral_stims\id-1378_gender-F_age-19.png,19,F,0,1,1,0,0,1,1,48,-2,16.961,01,F,False,False,2018_Oct_17_1257,pilot_RL,119.8881957439051,
rating,arousal,Hoe geactiveerd maakt dit gezicht je?,Je beoordeelt dit op een schaal van 'Helemaal niet geactiveerd' tot 'Zeer geactiveerd'. Met 'geactiveerd' bedoelen we dat het het gezicht je alert/energiek/gespannen doet voelen. Met 'niet geactiveerd' bedoelen we dat het gezicht je kalm/ontspannen/rustig doet voelen.,Helemaal niet geactiveerd,Zeer geactiveerd,stims\neutral_stims\id-1367_gender-M_age-20.png,20,M,0,1,1,0,0,2,2,43,-3,6.443,01,F,False,False,2018_Oct_17_1257,pilot_RL,119.8881957439051,
rating,arousal,Hoe geactiveerd maakt dit gezicht je?,Je beoordeelt dit op een schaal van 'Helemaal niet geactiveerd' tot 'Zeer geactiveerd'. Met 'geactiveerd' bedoelen we dat het het gezicht je alert/energiek/gespannen doet voelen. Met 'niet geactiveerd' bedoelen we dat het gezicht je kalm/ontspannen/rustig doet voelen.,Helemaal niet geactiveerd,Zeer geactiveerd,stims\neutral_stims\id-1274_gender-F_age-33.png,33,F,0,1,1,0,0,3,3,6,-4,26.521,01,F,False,False,2018_Oct_17_1257,pilot_RL,119.8881957439051,
rating,arousal,Hoe geactiveerd maakt dit gezicht je?,Je beoordeelt dit op een schaal van 'Helemaal niet geactiveerd' tot 'Zeer geactiveerd'. Met 'geactiveerd' bedoelen we dat het het gezicht je alert/energiek/gespannen doet voelen. Met 'niet geactiveerd' bedoelen we dat het gezicht je kalm/ontspannen/rustig doet voelen.,Helemaal niet geactiveerd,Zeer geactiveerd,stims\neutral_stims\id-1266_gender-M_age-21.png,21,M,0,1,1,0,0,4,4,2,-4,3.118,01,F,False,False,2018_Oct_17_1257,pilot_RL,119.8881957439051,
rating,arousal,Hoe geactiveerd maakt dit gezicht je?,Je beoordeelt dit op een schaal van 'Helemaal niet geactiveerd' tot 'Zeer geactiveerd'. Met 'geactiveerd' bedoelen we dat het het gezicht je alert/energiek/gespannen doet voelen. Met 'niet geactiveerd' bedoelen we dat het gezicht je kalm/ontspannen/rustig doet voelen.,Helemaal niet geactiveerd,Zeer geactiveerd,stims\neutral_stims\id-1289_gender-F_age-20.png,20,F,0,1,1,0,0,5,5,10,-4,3.46,01,F,False,False,2018_Oct_17_1257,pilot_RL,119.8881957439051,
rating,arousal,Hoe geactiveerd maakt dit gezicht je?,Je beoordeelt dit op een schaal van 'Helemaal niet geactiveerd' tot 'Zeer geactiveerd'. Met 'geactiveerd' bedoelen we dat het het gezicht je alert/energiek/gespannen doet voelen. Met 'niet geactiveerd' bedoelen we dat het gezicht je kalm/ontspannen/rustig doet voelen.,Helemaal niet geactiveerd,Zeer geactiveerd,stims\neutral_stims\id-1362_gender-F_age-24.png,24,F,0,1,1,0,0,6,6,40,-4,1.818,01,F,False,False,2018_Oct_17_1257,pilot_RL,119.8881957439051,
rating,arousal,Hoe geactiveerd maakt dit gezicht je?,Je beoordeelt dit op een schaal van 'Helemaal niet geactiveerd' tot 'Zeer geactiveerd'. Met 'geactiveerd' bedoelen we dat het het gezicht je alert/energiek/gespannen doet voelen. Met 'niet geactiveerd' bedoelen we dat het gezicht je kalm/ontspannen/rustig doet voelen.,Helemaal niet geactiveerd,Zeer geactiveerd,stims\neutral_stims\id-1370_gender-M_age-19.png,19,M,0,1,1,0,0,7,7,44,-4,3.926,01,F,False,False,2018_Oct_17_1257,pilot_RL,119.8881957439051,
rating,arousal,Hoe geactiveerd maakt dit gezicht je?,Je beoordeelt dit op een schaal van 'Helemaal niet geactiveerd' tot 'Zeer geactiveerd'. Met 'geactiveerd' bedoelen we dat het het gezicht je alert/energiek/gespannen doet voelen. Met 'niet geactiveerd' bedoelen we dat het gezicht je kalm/ontspannen/rustig doet voelen.,Helemaal niet geactiveerd,Zeer geactiveerd,stims\neutral_stims\id-1342_gender-M_age-19.png,19,M,0,1,1,0,0,8,8,30,-4,2.426,01,F,False,False,2018_Oct_17_1257,pilot_RL,119.8881957439051,
rating,arousal,Hoe geactiveerd maakt dit gezicht je?,Je beoordeelt dit op een schaal van 'Helemaal niet geactiveerd' tot 'Zeer geactiveerd'. Met 'geactiveerd' bedoelen we dat het het gezicht je alert/energiek/gespannen doet voelen. Met 'niet geactiveerd' bedoelen we dat het gezicht je kalm/ontspannen/rustig doet voelen.,Helemaal niet geactiveerd,Zeer geactiveerd,stims\neutral_stims\id-1318_gender-M_age-35.png,35,M,0,1,1,0,0,9,9,25,-4,2.034,01,F,False,False,2018_Oct_17_1257,pilot_RL,119.8881957439051,
rating,arousal,Hoe geactiveerd maakt dit gezicht je?,Je beoordeelt dit op een schaal van 'Helemaal niet geactiveerd' tot 'Zeer geactiveerd'. Met 'geactiveerd' bedoelen we dat het het gezicht je alert/energiek/gespannen doet voelen. Met 'niet geactiveerd' bedoelen we dat het gezicht je kalm/ontspannen/rustig doet voelen.,Helemaal niet geactiveerd,Zeer geactiveerd,stims\neutral_stims\id-1290_gender-F_age-23.png,23,F,0,1,1,0,0,10,10,11,-4,2.184,01,F,False,False,2018_Oct_17_1257,pilot_RL,119.8881957439051,
rating,arousal,Hoe geactiveerd maakt dit gezicht je?,Je beoordeelt dit op een schaal van 'Helemaal niet geactiveerd' tot 'Zeer geactiveerd'. Met 'geactiveerd' bedoelen we dat het het gezicht je alert/energiek/gespannen doet voelen. Met 'niet geactiveerd' bedoelen we dat het gezicht je kalm/ontspannen/rustig doet voelen.,Helemaal niet geactiveerd,Zeer geactiveerd,stims\neutral_stims\id-1264_gender-F_age-26.png,26,F,0,1,1,0,0,11,11,1,-4,1.626,01,F,False,False,2018_Oct_17_1257,pilot_RL,119.8881957439051,
rating,arousal,Hoe geactiveerd maakt dit gezicht je?,Je beoordeelt dit op een schaal van 'Helemaal niet geactiveerd' tot 'Zeer geactiveerd'. Met 'geactiveerd' bedoelen we dat het het gezicht je alert/energiek/gespannen doet voelen. Met 'niet geactiveerd' bedoelen we dat het gezicht je kalm/ontspannen/rustig doet voelen.,Helemaal niet geactiveerd,Zeer geactiveerd,stims\neutral_stims\id-1323_gender-F_age-23.png,23,F,0,1,1,0,0,12,12,26,-4,2.168,01,F,False,False,2018_Oct_17_1257,pilot_RL,119.8881957439051,
rating,arousal,Hoe geactiveerd maakt dit gezicht je?,Je beoordeelt dit op een schaal van 'Helemaal niet geactiveerd' tot 'Zeer geactiveerd'. Met 'geactiveerd' bedoelen we dat het het gezicht je alert/energiek/gespannen doet voelen. Met 'niet geactiveerd' bedoelen we dat het gezicht je kalm/ontspannen/rustig doet voelen.,Helemaal niet geactiveerd,Zeer geactiveerd,stims\neutral_stims\id-1280_gender-M_age-18.png,18,M,0,1,1,0,0,13,13,8,-3,4.876,01,F,False,False,2018_Oct_17_1257,pilot_RL,119.8881957439051,
rating,arousal,Hoe geactiveerd maakt dit gezicht je?,Je beoordeelt dit op een schaal van 'Helemaal niet geactiveerd' tot 'Zeer geactiveerd'. Met 'geactiveerd' bedoelen we dat het het gezicht je alert/energiek/gespannen doet voelen. Met 'niet geactiveerd' bedoelen we dat het gezicht je kalm/ontspannen/rustig doet voelen.,Helemaal niet geactiveerd,Zeer geactiveerd,stims\neutral_stims\id-1310_gender-F_age-28.png,28,F,0,1,1,0,0,14,14,22,-4,1.876,01,F,False,False,2018_Oct_17_1257,pilot_RL,119.8881957439051,
rating,arousal,Hoe geactiveerd maakt dit gezicht je?,Je beoordeelt dit op een schaal van 'Helemaal niet geactiveerd' tot 'Zeer geactiveerd'. Met 'geactiveerd' bedoelen we dat het het gezicht je alert/energiek/gespannen doet voelen. Met 'niet geactiveerd' bedoelen we dat het gezicht je kalm/ontspannen/rustig doet voelen.,Helemaal niet geactiveerd,Zeer geactiveerd,stims\neutral_stims\id-1315_gender-M_age-16.png,16,M,0,1,1,0,0,15,15,24,-4,1.526,01,F,False,False,2018_Oct_17_1257,pilot_RL,119.8881957439051,
rating,arousal,Hoe geactiveerd maakt dit gezicht je?,Je beoordeelt dit op een schaal van 'Helemaal niet geactiveerd' tot 'Zeer geactiveerd'. Met 'geactiveerd' bedoelen we dat het het gezicht je alert/energiek/gespannen doet voelen. Met 'niet geactiveerd' bedoelen we dat het gezicht je kalm/ontspannen/rustig doet voelen.,Helemaal niet geactiveerd,Zeer geactiveerd,stims\neutral_stims\id-1345_gender-M_age-18.png,18,M,0,1,1,0,0,16,16,32,-4,1.768,01,F,False,False,2018_Oct_17_1257,pilot_RL,119.8881957439051,
rating,arousal,Hoe geactiveerd maakt dit gezicht je?,Je beoordeelt dit op een schaal van 'Helemaal niet geactiveerd' tot 'Zeer geactiveerd'. Met 'geactiveerd' bedoelen we dat het het gezicht je alert/energiek/gespannen doet voelen. Met 'niet geactiveerd' bedoelen we dat het gezicht je kalm/ontspannen/rustig doet voelen.,Helemaal niet geactiveerd,Zeer geactiveerd,stims\neutral_stims\id-1356_gender-F_age-20.png,20,F,0,1,1,0,0,17,17,36,-4,1.759,01,F,False,False,2018_Oct_17_1257,pilot_RL,119.8881957439051,
rating,arousal,Hoe geactiveerd maakt dit gezicht je?,Je beoordeelt dit op een schaal van 'Helemaal niet geactiveerd' tot 'Zeer geactiveerd'. Met 'geactiveerd' bedoelen we dat het het gezicht je alert/energiek/gespannen doet voelen. Met 'niet geactiveerd' bedoelen we dat het gezicht je kalm/ontspannen/rustig doet voelen.,Helemaal niet geactiveerd,Zeer geactiveerd,stims\neutral_stims\id-1294_gender-F_age-26.png,26,F,0,1,1,0,0,18,18,14,-4,1.543,01,F,False,False,2018_Oct_17_1257,pilot_RL,119.8881957439051,
rating,arousal,Hoe geactiveerd maakt dit gezicht je?,Je beoordeelt dit op een schaal van 'Helemaal niet geactiveerd' tot 'Zeer geactiveerd'. Met 'geactiveerd' bedoelen we dat het het gezicht je alert/energiek/gespannen doet voelen. Met 'niet geactiveerd' bedoelen we dat het gezicht je kalm/ontspannen/rustig doet voelen.,Helemaal niet geactiveerd,Zeer geactiveerd,stims\neutral_stims\id-1269_gender-F_age-23.png,23,F,0,1,1,0,0,19,19,3,-4,1.434,01,F,False,False,2018_Oct_17_1257,pilot_RL,119.8881957439051,
rating,arousal,Hoe geactiveerd maakt dit gezicht je?,Je beoordeelt dit op een schaal van 'Helemaal niet geactiveerd' tot 'Zeer geactiveerd'. Met 'geactiveerd' bedoelen we dat het het gezicht je alert/energiek/gespannen doet voelen. Met 'niet geactiveerd' bedoelen we dat het gezicht je kalm/ontspannen/rustig doet voelen.,Helemaal niet geactiveerd,Zeer geactiveerd,stims\neutral_stims\id-1344_gender-M_age-25.png,25,M,0,1,1,0,0,20,20,31,-4,1.576,01,F,False,False,2018_Oct_17_1257,pilot_RL,119.8881957439051,
rating,arousal,Hoe geactiveerd maakt dit gezicht je?,Je beoordeelt dit op een schaal van 'Helemaal niet geactiveerd' tot 'Zeer geactiveerd'. Met 'geactiveerd' bedoelen we dat het het gezicht je alert/energiek/gespannen doet voelen. Met 'niet geactiveerd' bedoelen we dat het gezicht je kalm/ontspannen/rustig doet voelen.,Helemaal niet geactiveerd,Zeer geactiveerd,stims\neutral_stims\id-1339_gender-F_age-30.png,30,F,0,1,1,0,0,21,21,28,-4,1.551,01,F,False,False,2018_Oct_17_1257,pilot_RL,119.8881957439051,
rating,arousal,Hoe geactiveerd maakt dit gezicht je?,Je beoordeelt dit op een schaal van 'Helemaal niet geactiveerd' tot 'Zeer geactiveerd'. Met 'geactiveerd' bedoelen we dat het het gezicht je alert/energiek/gespannen doet voelen. Met 'niet geactiveerd' bedoelen we dat het gezicht je kalm/ontspannen/rustig doet voelen.,Helemaal niet geactiveerd,Zeer geactiveerd,stims\neutral_stims\id-1341_gender-M_age-19.png,19,M,0,1,1,0,0,22,22,29,-4,1.801,01,F,False,False,2018_Oct_17_1257,pilot_RL,119.8881957439051,
rating,arousal,Hoe geactiveerd maakt dit gezicht je?,Je beoordeelt dit op een schaal van 'Helemaal niet geactiveerd' tot 'Zeer geactiveerd'. Met 'geactiveerd' bedoelen we dat het het gezicht je alert/energiek/gespannen doet voelen. Met 'niet geactiveerd' bedoelen we dat het gezicht je kalm/ontspannen/rustig doet voelen.,Helemaal niet geactiveerd,Zeer geactiveerd,stims\neutral_stims\id-1360_gender-F_age-20.png,20,F,0,1,1,0,0,23,23,38,-4,1.501,01,F,False,False,2018_Oct_17_1257,pilot_RL,119.8881957439051,
rating,arousal,Hoe geactiveerd maakt dit gezicht je?,Je beoordeelt dit op een schaal van 'Helemaal niet geactiveerd' tot 'Zeer geactiveerd'. Met 'geactiveerd' bedoelen we dat het het gezicht je alert/energiek/gespannen doet voelen. Met 'niet geactiveerd' bedoelen we dat het gezicht je kalm/ontspannen/rustig doet voelen.,Helemaal niet geactiveerd,Zeer geactiveerd,stims\neutral_stims\id-1361_gender-F_age-19.png,19,F,0,1,1,0,0,24,24,39,-4,1.501,01,F,False,False,2018_Oct_17_1257,pilot_RL,119.8881957439051,
rating,arousal,Hoe geactiveerd maakt dit gezicht je?,Je beoordeelt dit op een schaal van 'Helemaal niet geactiveerd' tot 'Zeer geactiveerd'. Met 'geactiveerd' bedoelen we dat het het gezicht je alert/energiek/gespannen doet voelen. Met 'niet geactiveerd' bedoelen we dat het gezicht je kalm/ontspannen/rustig doet voelen.,Helemaal niet geactiveerd,Zeer geactiveerd,stims\neutral_stims\id-1285_gender-F_age-19.png,19,F,0,1,1,0,0,25,25,9,-4,1.551,01,F,False,False,2018_Oct_17_1257,pilot_RL,119.8881957439051,
rating,arousal,Hoe geactiveerd maakt dit gezicht je?,Je beoordeelt dit op een schaal van 'Helemaal niet geactiveerd' tot 'Zeer geactiveerd'. Met 'geactiveerd' bedoelen we dat het het gezicht je alert/energiek/gespannen doet voelen. Met 'niet geactiveerd' bedoelen we dat het gezicht je kalm/ontspannen/rustig doet voelen.,Helemaal niet geactiveerd,Zeer geactiveerd,stims\neutral_stims\id-1279_gender-F_age-19.png,19,F,0,1,1,0,0,26,26,7,-4,1.668,01,F,False,False,2018_Oct_17_1257,pilot_RL,119.8881957439051,
rating,arousal,Hoe geactiveerd maakt dit gezicht je?,Je beoordeelt dit op een schaal van 'Helemaal niet geactiveerd' tot 'Zeer geactiveerd'. Met 'geactiveerd' bedoelen we dat het het gezicht je alert/energiek/gespannen doet voelen. Met 'niet geactiveerd' bedoelen we dat het gezicht je kalm/ontspannen/rustig doet voelen.,Helemaal niet geactiveerd,Zeer geactiveerd,stims\neutral_stims\id-1307_gender-F_age-22.png,22,F,0,1,1,0,0,27,27,20,-4,1.568,01,F,False,False,2018_Oct_17_1257,pilot_RL,119.8881957439051,
rating,arousal,Hoe geactiveerd maakt dit gezicht je?,Je beoordeelt dit op een schaal van 'Helemaal niet geactiveerd' tot 'Zeer geactiveerd'. Met 'geactiveerd' bedoelen we dat het het gezicht je alert/energiek/gespannen doet voelen. Met 'niet geactiveerd' bedoelen we dat het gezicht je kalm/ontspannen/rustig doet voelen.,Helemaal niet geactiveerd,Zeer geactiveerd,stims\neutral_stims\id-1309_gender-M_age-22.png,22,M,0,1,1,0,0,28,28,21,-4,1.643,01,F,False,False,2018_Oct_17_1257,pilot_RL,119.8881957439051,
rating,arousal,Hoe geactiveerd maakt dit gezicht je?,Je beoordeelt dit op een schaal van 'Helemaal niet geactiveerd' tot 'Zeer geactiveerd'. Met 'geactiveerd' bedoelen we dat het het gezicht je alert/energiek/gespannen doet voelen. Met 'niet geactiveerd' bedoelen we dat het gezicht je kalm/ontspannen/rustig doet voelen.,Helemaal niet geactiveerd,Zeer geactiveerd,stims\neutral_stims\id-1306_gender-F_age-21.png,21,F,0,1,1,0,0,29,29,19,-4,1.476,01,F,False,False,2018_Oct_17_1257,pilot_RL,119.8881957439051,
rating,arousal,Hoe geactiveerd maakt dit gezicht je?,Je beoordeelt dit op een schaal van 'Helemaal niet geactiveerd' tot 'Zeer geactiveerd'. Met 'geactiveerd' bedoelen we dat het het gezicht je alert/energiek/gespannen doet voelen. Met 'niet geactiveerd' bedoelen we dat het gezicht je kalm/ontspannen/rustig doet voelen.,Helemaal niet geactiveerd,Zeer geactiveerd,stims\neutral_stims\id-1311_gender-F_age-22.png,22,F,0,1,1,0,0,30,30,23,-4,2.376,01,F,False,False,2018_Oct_17_1257,pilot_RL,119.8881957439051,
rating,arousal,Hoe geactiveerd maakt dit gezicht je?,Je beoordeelt dit op een schaal van 'Helemaal niet geactiveerd' tot 'Zeer geactiveerd'. Met 'geactiveerd' bedoelen we dat het het gezicht je alert/energiek/gespannen doet voelen. Met 'niet geactiveerd' bedoelen we dat het gezicht je kalm/ontspannen/rustig doet voelen.,Helemaal niet geactiveerd,Zeer geactiveerd,stims\neutral_stims\id-1270_gender-F_age-30.png,30,F,0,1,1,0,0,31,31,4,-4,3.126,01,F,False,False,2018_Oct_17_1257,pilot_RL,119.8881957439051,
rating,arousal,Hoe geactiveerd maakt dit gezicht je?,Je beoordeelt dit op een schaal van 'Helemaal niet geactiveerd' tot 'Zeer geactiveerd'. Met 'geactiveerd' bedoelen we dat het het gezicht je alert/energiek/gespannen doet voelen. Met 'niet geactiveerd' bedoelen we dat het gezicht je kalm/ontspannen/rustig doet voelen.,Helemaal niet geactiveerd,Zeer geactiveerd,stims\neutral_stims\id-1273_gender-F_age-20.png,20,F,0,1,1,0,0,32,32,5,-4,1.451,01,F,False,False,2018_Oct_17_1257,pilot_RL,119.8881957439051,
rating,arousal,Hoe geactiveerd maakt dit gezicht je?,Je beoordeelt dit op een schaal van 'Helemaal niet geactiveerd' tot 'Zeer geactiveerd'. Met 'geactiveerd' bedoelen we dat het het gezicht je alert/energiek/gespannen doet voelen. Met 'niet geactiveerd' bedoelen we dat het gezicht je kalm/ontspannen/rustig doet voelen.,Helemaal niet geactiveerd,Zeer geactiveerd,stims\neutral_stims\id-1373_gender-F_age-30.png,30,F,0,1,1,0,0,33,33,45,-4,1.851,01,F,False,False,2018_Oct_17_1257,pilot_RL,119.8881957439051,
rating,arousal,Hoe geactiveerd maakt dit gezicht je?,Je beoordeelt dit op een schaal van 'Helemaal niet geactiveerd' tot 'Zeer geactiveerd'. Met 'geactiveerd' bedoelen we dat het het gezicht je alert/energiek/gespannen doet voelen. Met 'niet geactiveerd' bedoelen we dat het gezicht je kalm/ontspannen/rustig doet voelen.,Helemaal niet geactiveerd,Zeer geactiveerd,stims\neutral_stims\id-1380_gender-F_age-21.png,21,F,0,1,1,0,0,34,34,49,-4,1.384,01,F,False,False,2018_Oct_17_1257,pilot_RL,119.8881957439051,
rating,arousal,Hoe geactiveerd maakt dit gezicht je?,Je beoordeelt dit op een schaal van 'Helemaal niet geactiveerd' tot 'Zeer geactiveerd'. Met 'geactiveerd' bedoelen we dat het het gezicht je alert/energiek/gespannen doet voelen. Met 'niet geactiveerd' bedoelen we dat het gezicht je kalm/ontspannen/rustig doet voelen.,Helemaal niet geactiveerd,Zeer geactiveerd,stims\neutral_stims\id-1260_gender-F_age-22.png,22,F,0,1,1,0,0,35,35,0,-4,1.568,01,F,False,False,2018_Oct_17_1257,pilot_RL,119.8881957439051,
rating,arousal,Hoe geactiveerd maakt dit gezicht je?,Je beoordeelt dit op een schaal van 'Helemaal niet geactiveerd' tot 'Zeer geactiveerd'. Met 'geactiveerd' bedoelen we dat het het gezicht je alert/energiek/gespannen doet voelen. Met 'niet geactiveerd' bedoelen we dat het gezicht je kalm/ontspannen/rustig doet voelen.,Helemaal niet geactiveerd,Zeer geactiveerd,stims\neutral_stims\id-1293_gender-F_age-31.png,31,F,0,1,1,0,0,36,36,13,-4,1.734,01,F,False,False,2018_Oct_17_1257,pilot_RL,119.8881957439051,
rating,arousal,Hoe geactiveerd maakt dit gezicht je?,Je beoordeelt dit op een schaal van 'Helemaal niet geactiveerd' tot 'Zeer geactiveerd'. Met 'geactiveerd' bedoelen we dat het het gezicht je alert/energiek/gespannen doet voelen. Met 'niet geactiveerd' bedoelen we dat het gezicht je kalm/ontspannen/rustig doet voelen.,Helemaal niet geactiveerd,Zeer geactiveerd,stims\neutral_stims\id-1296_gender-F_age-23.png,23,F,0,1,1,0,0,37,37,16,-4,2.576,01,F,False,False,2018_Oct_17_1257,pilot_RL,119.8881957439051,
rating,arousal,Hoe geactiveerd maakt dit gezicht je?,Je beoordeelt dit op een schaal van 'Helemaal niet geactiveerd' tot 'Zeer geactiveerd'. Met 'geactiveerd' bedoelen we dat het het gezicht je alert/energiek/gespannen doet voelen. Met 'niet geactiveerd' bedoelen we dat het gezicht je kalm/ontspannen/rustig doet voelen.,Helemaal niet geactiveerd,Zeer geactiveerd,stims\neutral_stims\id-1335_gender-M_age-23.png,23,M,0,1,1,0,0,38,38,27,-4,1.951,01,F,False,False,2018_Oct_17_1257,pilot_RL,119.8881957439051,
rating,arousal,Hoe geactiveerd maakt dit gezicht je?,Je beoordeelt dit op een schaal van 'Helemaal niet geactiveerd' tot 'Zeer geactiveerd'. Met 'geactiveerd' bedoelen we dat het het gezicht je alert/energiek/gespannen doet voelen. Met 'niet geactiveerd' bedoelen we dat het gezicht je kalm/ontspannen/rustig doet voelen.,Helemaal niet geactiveerd,Zeer geactiveerd,stims\neutral_stims\id-1297_gender-F_age-22.png,22,F,0,1,1,0,0,39,39,17,-4,1.493,01,F,False,False,2018_Oct_17_1257,pilot_RL,119.8881957439051,
rating,arousal,Hoe geactiveerd maakt dit gezicht je?,Je beoordeelt dit op een schaal van 'Helemaal niet geactiveerd' tot 'Zeer geactiveerd'. Met 'geactiveerd' bedoelen we dat het het gezicht je alert/energiek/gespannen doet voelen. Met 'niet geactiveerd' bedoelen we dat het gezicht je kalm/ontspannen/rustig doet voelen.,Helemaal niet geactiveerd,Zeer geactiveerd,stims\neutral_stims\id-1377_gender-M_age-20.png,20,M,0,1,1,0,0,40,40,47,-4,1.593,01,F,False,False,2018_Oct_17_1257,pilot_RL,119.8881957439051,
rating,arousal,Hoe geactiveerd maakt dit gezicht je?,Je beoordeelt dit op een schaal van 'Helemaal niet geactiveerd' tot 'Zeer geactiveerd'. Met 'geactiveerd' bedoelen we dat het het gezicht je alert/energiek/gespannen doet voelen. Met 'niet geactiveerd' bedoelen we dat het gezicht je kalm/ontspannen/rustig doet voelen.,Helemaal niet geactiveerd,Zeer geactiveerd,stims\neutral_stims\id-1355_gender-F_age-19.png,19,F,0,1,1,0,0,41,41,35,-4,7.618,01,F,False,False,2018_Oct_17_1257,pilot_RL,119.8881957439051,
rating,arousal,Hoe geactiveerd maakt dit gezicht je?,Je beoordeelt dit op een schaal van 'Helemaal niet geactiveerd' tot 'Zeer geactiveerd'. Met 'geactiveerd' bedoelen we dat het het gezicht je alert/energiek/gespannen doet voelen. Met 'niet geactiveerd' bedoelen we dat het gezicht je kalm/ontspannen/rustig doet voelen.,Helemaal niet geactiveerd,Zeer geactiveerd,stims\neutral_stims\id-1363_gender-M_age-19.png,19,M,0,1,1,0,0,42,42,41,-4,2.143,01,F,False,False,2018_Oct_17_1257,pilot_RL,119.8881957439051,
rating,arousal,Hoe geactiveerd maakt dit gezicht je?,Je beoordeelt dit op een schaal van 'Helemaal niet geactiveerd' tot 'Zeer geactiveerd'. Met 'geactiveerd' bedoelen we dat het het gezicht je alert/energiek/gespannen doet voelen. Met 'niet geactiveerd' bedoelen we dat het gezicht je kalm/ontspannen/rustig doet voelen.,Helemaal niet geactiveerd,Zeer geactiveerd,stims\neutral_stims\id-1295_gender-F_age-26.png,26,F,0,1,1,0,0,43,43,15,-4,2.118,01,F,False,False,2018_Oct_17_1257,pilot_RL,119.8881957439051,
rating,arousal,Hoe geactiveerd maakt dit gezicht je?,Je beoordeelt dit op een schaal van 'Helemaal niet geactiveerd' tot 'Zeer geactiveerd'. Met 'geactiveerd' bedoelen we dat het het gezicht je alert/energiek/gespannen doet voelen. Met 'niet geactiveerd' bedoelen we dat het gezicht je kalm/ontspannen/rustig doet voelen.,Helemaal niet geactiveerd,Zeer geactiveerd,stims\neutral_stims\id-1291_gender-F_age-24.png,24,F,0,1,1,0,0,44,44,12,-4,1.709,01,F,False,False,2018_Oct_17_1257,pilot_RL,119.8881957439051,
rating,arousal,Hoe geactiveerd maakt dit gezicht je?,Je beoordeelt dit op een schaal van 'Helemaal niet geactiveerd' tot 'Zeer geactiveerd'. Met 'geactiveerd' bedoelen we dat het het gezicht je alert/energiek/gespannen doet voelen. Met 'niet geactiveerd' bedoelen we dat het gezicht je kalm/ontspannen/rustig doet voelen.,Helemaal niet geactiveerd,Zeer geactiveerd,stims\neutral_stims\id-1354_gender-F_age-23.png,23,F,0,1,1,0,0,45,45,34,-4,1.893,01,F,False,False,2018_Oct_17_1257,pilot_RL,119.8881957439051,
rating,arousal,Hoe geactiveerd maakt dit gezicht je?,Je beoordeelt dit op een schaal van 'Helemaal niet geactiveerd' tot 'Zeer geactiveerd'. Met 'geactiveerd' bedoelen we dat het het gezicht je alert/energiek/gespannen doet voelen. Met 'niet geactiveerd' bedoelen we dat het gezicht je kalm/ontspannen/rustig doet voelen.,Helemaal niet geactiveerd,Zeer geactiveerd,stims\neutral_stims\id-1366_gender-F_age-24.png,24,F,0,1,1,0,0,46,46,42,-4,1.526,01,F,False,False,2018_Oct_17_1257,pilot_RL,119.8881957439051,
rating,arousal,Hoe geactiveerd maakt dit gezicht je?,Je beoordeelt dit op een schaal van 'Helemaal niet geactiveerd' tot 'Zeer geactiveerd'. Met 'geactiveerd' bedoelen we dat het het gezicht je alert/energiek/gespannen doet voelen. Met 'niet geactiveerd' bedoelen we dat het gezicht je kalm/ontspannen/rustig doet voelen.,Helemaal niet geactiveerd,Zeer geactiveerd,stims\neutral_stims\id-1376_gender-F_age-19.png,19,F,0,1,1,0,0,47,47,46,-4,1.426,01,F,False,False,2018_Oct_17_1257,pilot_RL,119.8881957439051,
rating,arousal,Hoe geactiveerd maakt dit gezicht je?,Je beoordeelt dit op een schaal van 'Helemaal niet geactiveerd' tot 'Zeer geactiveerd'. Met 'geactiveerd' bedoelen we dat het het gezicht je alert/energiek/gespannen doet voelen. Met 'niet geactiveerd' bedoelen we dat het gezicht je kalm/ontspannen/rustig doet voelen.,Helemaal niet geactiveerd,Zeer geactiveerd,stims\neutral_stims\id-1347_gender-F_age-27.png,27,F,0,1,1,0,0,48,48,33,-4,1.376,01,F,False,False,2018_Oct_17_1257,pilot_RL,119.8881957439051,
rating,arousal,Hoe geactiveerd maakt dit gezicht je?,Je beoordeelt dit op een schaal van 'Helemaal niet geactiveerd' tot 'Zeer geactiveerd'. Met 'geactiveerd' bedoelen we dat het het gezicht je alert/energiek/gespannen doet voelen. Met 'niet geactiveerd' bedoelen we dat het gezicht je kalm/ontspannen/rustig doet voelen.,Helemaal niet geactiveerd,Zeer geactiveerd,stims\neutral_stims\id-1302_gender-F_age-30.png,30,F,0,1,1,0,0,49,49,18,-4,1.376,01,F,False,False,2018_Oct_17_1257,pilot_RL,119.8881957439051,
rating,arousal,Hoe geactiveerd maakt dit gezicht je?,Je beoordeelt dit op een schaal van 'Helemaal niet geactiveerd' tot 'Zeer geactiveerd'. Met 'geactiveerd' bedoelen we dat het het gezicht je alert/energiek/gespannen doet voelen. Met 'niet geactiveerd' bedoelen we dat het gezicht je kalm/ontspannen/rustig doet voelen.,Helemaal niet geactiveerd,Zeer geactiveerd,,,,0,1,1,0,,,,,,,01,F,False,False,2018_Oct_17_1257,pilot_RL,119.8881957439051,
rating,trustworthiness,Hoe betrouwbaar vind jij dit gezicht?,Je beoordeelt dit op een schaal van 'Zeer onbetrouwbaar' tot 'Zeer betrouwbaar'.,Zeer onbetrouwbaar,Zeer betrouwbaar,stims\neutral_stims\id-1273_gender-F_age-20.png,20,F,0,2,2,3,0,0,0,5,2,4.226,01,F,False,False,2018_Oct_17_1257,pilot_RL,119.8881957439051,
rating,trustworthiness,Hoe betrouwbaar vind jij dit gezicht?,Je beoordeelt dit op een schaal van 'Zeer onbetrouwbaar' tot 'Zeer betrouwbaar'.,Zeer onbetrouwbaar,Zeer betrouwbaar,stims\neutral_stims\id-1373_gender-F_age-30.png,30,F,0,2,2,3,0,1,1,45,-1,1.618,01,F,False,False,2018_Oct_17_1257,pilot_RL,119.8881957439051,
rating,trustworthiness,Hoe betrouwbaar vind jij dit gezicht?,Je beoordeelt dit op een schaal van 'Zeer onbetrouwbaar' tot 'Zeer betrouwbaar'.,Zeer onbetrouwbaar,Zeer betrouwbaar,stims\neutral_stims\id-1293_gender-F_age-31.png,31,F,0,2,2,3,0,2,2,13,-1,2.96,01,F,False,False,2018_Oct_17_1257,pilot_RL,119.8881957439051,
rating,trustworthiness,Hoe betrouwbaar vind jij dit gezicht?,Je beoordeelt dit op een schaal van 'Zeer onbetrouwbaar' tot 'Zeer betrouwbaar'.,Zeer onbetrouwbaar,Zeer betrouwbaar,stims\neutral_stims\id-1354_gender-F_age-23.png,23,F,0,2,2,3,0,3,3,34,-1,1.801,01,F,False,False,2018_Oct_17_1257,pilot_RL,119.8881957439051,
rating,trustworthiness,Hoe betrouwbaar vind jij dit gezicht?,Je beoordeelt dit op een schaal van 'Zeer onbetrouwbaar' tot 'Zeer betrouwbaar'.,Zeer onbetrouwbaar,Zeer betrouwbaar,stims\neutral_stims\id-1309_gender-M_age-22.png,22,M,0,2,2,3,0,4,4,21,0,2.768,01,F,False,False,2018_Oct_17_1257,pilot_RL,119.8881957439051,
rating,trustworthiness,Hoe betrouwbaar vind jij dit gezicht?,Je beoordeelt dit op een schaal van 'Zeer onbetrouwbaar' tot 'Zeer betrouwbaar'.,Zeer onbetrouwbaar,Zeer betrouwbaar,stims\neutral_stims\id-1341_gender-M_age-19.png,19,M,0,2,2,3,0,5,5,29,2,2.301,01,F,False,False,2018_Oct_17_1257,pilot_RL,119.8881957439051,
rating,trustworthiness,Hoe betrouwbaar vind jij dit gezicht?,Je beoordeelt dit op een schaal van 'Zeer onbetrouwbaar' tot 'Zeer betrouwbaar'.,Zeer onbetrouwbaar,Zeer betrouwbaar,stims\neutral_stims\id-1302_gender-F_age-30.png,30,F,0,2,2,3,0,6,6,18,2,4.318,01,F,False,False,2018_Oct_17_1257,pilot_RL,119.8881957439051,
rating,trustworthiness,Hoe betrouwbaar vind jij dit gezicht?,Je beoordeelt dit op een schaal van 'Zeer onbetrouwbaar' tot 'Zeer betrouwbaar'.,Zeer onbetrouwbaar,Zeer betrouwbaar,stims\neutral_stims\id-1266_gender-M_age-21.png,21,M,0,2,2,3,0,7,7,2,1,2.068,01,F,False,False,2018_Oct_17_1257,pilot_RL,119.8881957439051,
rating,trustworthiness,Hoe betrouwbaar vind jij dit gezicht?,Je beoordeelt dit op een schaal van 'Zeer onbetrouwbaar' tot 'Zeer betrouwbaar'.,Zeer onbetrouwbaar,Zeer betrouwbaar,stims\neutral_stims\id-1347_gender-F_age-27.png,27,F,0,2,2,3,0,8,8,33,-1,4.451,01,F,False,False,2018_Oct_17_1257,pilot_RL,119.8881957439051,
rating,trustworthiness,Hoe betrouwbaar vind jij dit gezicht?,Je beoordeelt dit op een schaal van 'Zeer onbetrouwbaar' tot 'Zeer betrouwbaar'.,Zeer onbetrouwbaar,Zeer betrouwbaar,stims\neutral_stims\id-1378_gender-F_age-19.png,19,F,0,2,2,3,0,9,9,48,2,1.793,01,F,False,False,2018_Oct_17_1257,pilot_RL,119.8881957439051,
rating,trustworthiness,Hoe betrouwbaar vind jij dit gezicht?,Je beoordeelt dit op een schaal van 'Zeer onbetrouwbaar' tot 'Zeer betrouwbaar'.,Zeer onbetrouwbaar,Zeer betrouwbaar,stims\neutral_stims\id-1339_gender-F_age-30.png,30,F,0,2,2,3,0,10,10,28,2,1.776,01,F,False,False,2018_Oct_17_1257,pilot_RL,119.8881957439051,
rating,trustworthiness,Hoe betrouwbaar vind jij dit gezicht?,Je beoordeelt dit op een schaal van 'Zeer onbetrouwbaar' tot 'Zeer betrouwbaar'.,Zeer onbetrouwbaar,Zeer betrouwbaar,stims\neutral_stims\id-1362_gender-F_age-24.png,24,F,0,2,2,3,0,11,11,40,2,1.501,01,F,False,False,2018_Oct_17_1257,pilot_RL,119.8881957439051,
rating,trustworthiness,Hoe betrouwbaar vind jij dit gezicht?,Je beoordeelt dit op een schaal van 'Zeer onbetrouwbaar' tot 'Zeer betrouwbaar'.,Zeer onbetrouwbaar,Zeer betrouwbaar,stims\neutral_stims\id-1380_gender-F_age-21.png,21,F,0,2,2,3,0,12,12,49,1,4.685,01,F,False,False,2018_Oct_17_1257,pilot_RL,119.8881957439051,
rating,trustworthiness,Hoe betrouwbaar vind jij dit gezicht?,Je beoordeelt dit op een schaal van 'Zeer onbetrouwbaar' tot 'Zeer betrouwbaar'.,Zeer onbetrouwbaar,Zeer betrouwbaar,stims\neutral_stims\id-1356_gender-F_age-20.png,20,F,0,2,2,3,0,13,13,36,2,2.218,01,F,False,False,2018_Oct_17_1257,pilot_RL,119.8881957439051,
rating,trustworthiness,Hoe betrouwbaar vind jij dit gezicht?,Je beoordeelt dit op een schaal van 'Zeer onbetrouwbaar' tot 'Zeer betrouwbaar'.,Zeer onbetrouwbaar,Zeer betrouwbaar,stims\neutral_stims\id-1311_gender-F_age-22.png,22,F,0,2,2,3,0,14,14,23,1,2.168,01,F,False,False,2018_Oct_17_1257,pilot_RL,119.8881957439051,
rating,trustworthiness,Hoe betrouwbaar vind jij dit gezicht?,Je beoordeelt dit op een schaal van 'Zeer onbetrouwbaar' tot 'Zeer betrouwbaar'.,Zeer onbetrouwbaar,Zeer betrouwbaar,stims\neutral_stims\id-1342_gender-M_age-19.png,19,M,0,2,2,3,0,15,15,30,0,3.776,01,F,False,False,2018_Oct_17_1257,pilot_RL,119.8881957439051,
rating,trustworthiness,Hoe betrouwbaar vind jij dit gezicht?,Je beoordeelt dit op een schaal van 'Zeer onbetrouwbaar' tot 'Zeer betrouwbaar'.,Zeer onbetrouwbaar,Zeer betrouwbaar,stims\neutral_stims\id-1335_gender-M_age-23.png,23,M,0,2,2,3,0,16,16,27,1,1.984,01,F,False,False,2018_Oct_17_1257,pilot_RL,119.8881957439051,
rating,trustworthiness,Hoe betrouwbaar vind jij dit gezicht?,Je beoordeelt dit op een schaal van 'Zeer onbetrouwbaar' tot 'Zeer betrouwbaar'.,Zeer onbetrouwbaar,Zeer betrouwbaar,stims\neutral_stims\id-1290_gender-F_age-23.png,23,F,0,2,2,3,0,17,17,11,0,4.368,01,F,False,False,2018_Oct_17_1257,pilot_RL,119.8881957439051,
rating,trustworthiness,Hoe betrouwbaar vind jij dit gezicht?,Je beoordeelt dit op een schaal van 'Zeer onbetrouwbaar' tot 'Zeer betrouwbaar'.,Zeer onbetrouwbaar,Zeer betrouwbaar,stims\neutral_stims\id-1355_gender-F_age-19.png,19,F,0,2,2,3,0,18,18,35,-1,3.96,01,F,False,False,2018_Oct_17_1257,pilot_RL,119.8881957439051,
rating,trustworthiness,Hoe betrouwbaar vind jij dit gezicht?,Je beoordeelt dit op een schaal van 'Zeer onbetrouwbaar' tot 'Zeer betrouwbaar'.,Zeer onbetrouwbaar,Zeer betrouwbaar,stims\neutral_stims\id-1289_gender-F_age-20.png,20,F,0,2,2,3,0,19,19,10,0,2.818,01,F,False,False,2018_Oct_17_1257,pilot_RL,119.8881957439051,
rating,trustworthiness,Hoe betrouwbaar vind jij dit gezicht?,Je beoordeelt dit op een schaal van 'Zeer onbetrouwbaar' tot 'Zeer betrouwbaar'.,Zeer onbetrouwbaar,Zeer betrouwbaar,stims\neutral_stims\id-1297_gender-F_age-22.png,22,F,0,2,2,3,0,20,20,17,0,3.718,01,F,False,False,2018_Oct_17_1257,pilot_RL,119.8881957439051,
rating,trustworthiness,Hoe betrouwbaar vind jij dit gezicht?,Je beoordeelt dit op een schaal van 'Zeer onbetrouwbaar' tot 'Zeer betrouwbaar'.,Zeer onbetrouwbaar,Zeer betrouwbaar,stims\neutral_stims\id-1376_gender-F_age-19.png,19,F,0,2,2,3,0,21,21,46,0,5.618,01,F,False,False,2018_Oct_17_1257,pilot_RL,119.8881957439051,
rating,trustworthiness,Hoe betrouwbaar vind jij dit gezicht?,Je beoordeelt dit op een schaal van 'Zeer onbetrouwbaar' tot 'Zeer betrouwbaar'.,Zeer onbetrouwbaar,Zeer betrouwbaar,stims\neutral_stims\id-1310_gender-F_age-28.png,28,F,0,2,2,3,0,22,22,22,0,4.493,01,F,False,False,2018_Oct_17_1257,pilot_RL,119.8881957439051,
rating,trustworthiness,Hoe betrouwbaar vind jij dit gezicht?,Je beoordeelt dit op een schaal van 'Zeer onbetrouwbaar' tot 'Zeer betrouwbaar'.,Zeer onbetrouwbaar,Zeer betrouwbaar,stims\neutral_stims\id-1285_gender-F_age-19.png,19,F,0,2,2,3,0,23,23,9,-1,2.993,01,F,False,False,2018_Oct_17_1257,pilot_RL,119.8881957439051,
rating,trustworthiness,Hoe betrouwbaar vind jij dit gezicht?,Je beoordeelt dit op een schaal van 'Zeer onbetrouwbaar' tot 'Zeer betrouwbaar'.,Zeer onbetrouwbaar,Zeer betrouwbaar,stims\neutral_stims\id-1260_gender-F_age-22.png,22,F,0,2,2,3,0,24,24,0,-1,12.002,01,F,False,False,2018_Oct_17_1257,pilot_RL,119.8881957439051,
rating,trustworthiness,Hoe betrouwbaar vind jij dit gezicht?,Je beoordeelt dit op een schaal van 'Zeer onbetrouwbaar' tot 'Zeer betrouwbaar'.,Zeer onbetrouwbaar,Zeer betrouwbaar,stims\neutral_stims\id-1295_gender-F_age-26.png,26,F,0,2,2,3,0,25,25,15,-1,2.626,01,F,False,False,2018_Oct_17_1257,pilot_RL,119.8881957439051,
rating,trustworthiness,Hoe betrouwbaar vind jij dit gezicht?,Je beoordeelt dit op een schaal van 'Zeer onbetrouwbaar' tot 'Zeer betrouwbaar'.,Zeer onbetrouwbaar,Zeer betrouwbaar,stims\neutral_stims\id-1360_gender-F_age-20.png,20,F,0,2,2,3,0,26,26,38,-1,5.485,01,F,False,False,2018_Oct_17_1257,pilot_RL,119.8881957439051,
rating,trustworthiness,Hoe betrouwbaar vind jij dit gezicht?,Je beoordeelt dit op een schaal van 'Zeer onbetrouwbaar' tot 'Zeer betrouwbaar'.,Zeer onbetrouwbaar,Zeer betrouwbaar,stims\neutral_stims\id-1291_gender-F_age-24.png,24,F,0,2,2,3,0,27,27,12,1,2.068,01,F,False,False,2018_Oct_17_1257,pilot_RL,119.8881957439051,
rating,trustworthiness,Hoe betrouwbaar vind jij dit gezicht?,Je beoordeelt dit op een schaal van 'Zeer onbetrouwbaar' tot 'Zeer betrouwbaar'.,Zeer onbetrouwbaar,Zeer betrouwbaar,stims\neutral_stims\id-1344_gender-M_age-25.png,25,M,0,2,2,3,0,28,28,31,-2,1.859,01,F,False,False,2018_Oct_17_1257,pilot_RL,119.8881957439051,
rating,trustworthiness,Hoe betrouwbaar vind jij dit gezicht?,Je beoordeelt dit op een schaal van 'Zeer onbetrouwbaar' tot 'Zeer betrouwbaar'.,Zeer onbetrouwbaar,Zeer betrouwbaar,stims\neutral_stims\id-1264_gender-F_age-26.png,26,F,0,2,2,3,0,29,29,1,0,4.01,01,F,False,False,2018_Oct_17_1257,pilot_RL,119.8881957439051,
rating,trustworthiness,Hoe betrouwbaar vind jij dit gezicht?,Je beoordeelt dit op een schaal van 'Zeer onbetrouwbaar' tot 'Zeer betrouwbaar'.,Zeer onbetrouwbaar,Zeer betrouwbaar,stims\neutral_stims\id-1377_gender-M_age-20.png,20,M,0,2,2,3,0,30,30,47,1,3.584,01,F,False,False,2018_Oct_17_1257,pilot_RL,119.8881957439051,
rating,trustworthiness,Hoe betrouwbaar vind jij dit gezicht?,Je beoordeelt dit op een schaal van 'Zeer onbetrouwbaar' tot 'Zeer betrouwbaar'.,Zeer onbetrouwbaar,Zeer betrouwbaar,stims\neutral_stims\id-1323_gender-F_age-23.png,23,F,0,2,2,3,0,31,31,26,-1,3.168,01,F,False,False,2018_Oct_17_1257,pilot_RL,119.8881957439051,
rating,trustworthiness,Hoe betrouwbaar vind jij dit gezicht?,Je beoordeelt dit op een schaal van 'Zeer onbetrouwbaar' tot 'Zeer betrouwbaar'.,Zeer onbetrouwbaar,Zeer betrouwbaar,stims\neutral_stims\id-1280_gender-M_age-18.png,18,M,0,2,2,3,0,32,32,8,-1,2.31,01,F,False,False,2018_Oct_17_1257,pilot_RL,119.8881957439051,
rating,trustworthiness,Hoe betrouwbaar vind jij dit gezicht?,Je beoordeelt dit op een schaal van 'Zeer onbetrouwbaar' tot 'Zeer betrouwbaar'.,Zeer onbetrouwbaar,Zeer betrouwbaar,stims\neutral_stims\id-1345_gender-M_age-18.png,18,M,0,2,2,3,0,33,33,32,1,3.51,01,F,False,False,2018_Oct_17_1257,pilot_RL,119.8881957439051,
rating,trustworthiness,Hoe betrouwbaar vind jij dit gezicht?,Je beoordeelt dit op een schaal van 'Zeer onbetrouwbaar' tot 'Zeer betrouwbaar'.,Zeer onbetrouwbaar,Zeer betrouwbaar,stims\neutral_stims\id-1318_gender-M_age-35.png,35,M,0,2,2,3,0,34,34,25,0,3.451,01,F,False,False,2018_Oct_17_1257,pilot_RL,119.8881957439051,
rating,trustworthiness,Hoe betrouwbaar vind jij dit gezicht?,Je beoordeelt dit op een schaal van 'Zeer onbetrouwbaar' tot 'Zeer betrouwbaar'.,Zeer onbetrouwbaar,Zeer betrouwbaar,stims\neutral_stims\id-1367_gender-M_age-20.png,20,M,0,2,2,3,0,35,35,43,2,3.743,01,F,False,False,2018_Oct_17_1257,pilot_RL,119.8881957439051,
rating,trustworthiness,Hoe betrouwbaar vind jij dit gezicht?,Je beoordeelt dit op een schaal van 'Zeer onbetrouwbaar' tot 'Zeer betrouwbaar'.,Zeer onbetrouwbaar,Zeer betrouwbaar,stims\neutral_stims\id-1269_gender-F_age-23.png,23,F,0,2,2,3,0,36,36,3,-1,3.926,01,F,False,False,2018_Oct_17_1257,pilot_RL,119.8881957439051,
rating,trustworthiness,Hoe betrouwbaar vind jij dit gezicht?,Je beoordeelt dit op een schaal van 'Zeer onbetrouwbaar' tot 'Zeer betrouwbaar'.,Zeer onbetrouwbaar,Zeer betrouwbaar,stims\neutral_stims\id-1315_gender-M_age-16.png,16,M,0,2,2,3,0,37,37,24,0,9.569,01,F,False,False,2018_Oct_17_1257,pilot_RL,119.8881957439051,
rating,trustworthiness,Hoe betrouwbaar vind jij dit gezicht?,Je beoordeelt dit op een schaal van 'Zeer onbetrouwbaar' tot 'Zeer betrouwbaar'.,Zeer onbetrouwbaar,Zeer betrouwbaar,stims\neutral_stims\id-1363_gender-M_age-19.png,19,M,0,2,2,3,0,38,38,41,1,4.293,01,F,False,False,2018_Oct_17_1257,pilot_RL,119.8881957439051,
rating,trustworthiness,Hoe betrouwbaar vind jij dit gezicht?,Je beoordeelt dit op een schaal van 'Zeer onbetrouwbaar' tot 'Zeer betrouwbaar'.,Zeer onbetrouwbaar,Zeer betrouwbaar,stims\neutral_stims\id-1296_gender-F_age-23.png,23,F,0,2,2,3,0,39,39,16,1,1.309,01,F,False,False,2018_Oct_17_1257,pilot_RL,119.8881957439051,
rating,trustworthiness,Hoe betrouwbaar vind jij dit gezicht?,Je beoordeelt dit op een schaal van 'Zeer onbetrouwbaar' tot 'Zeer betrouwbaar'.,Zeer onbetrouwbaar,Zeer betrouwbaar,stims\neutral_stims\id-1307_gender-F_age-22.png,22,F,0,2,2,3,0,40,40,20,-1,12.152,01,F,False,False,2018_Oct_17_1257,pilot_RL,119.8881957439051,
rating,trustworthiness,Hoe betrouwbaar vind jij dit gezicht?,Je beoordeelt dit op een schaal van 'Zeer onbetrouwbaar' tot 'Zeer betrouwbaar'.,Zeer onbetrouwbaar,Zeer betrouwbaar,stims\neutral_stims\id-1306_gender-F_age-21.png,21,F,0,2,2,3,0,41,41,19,0,9.702,01,F,False,False,2018_Oct_17_1257,pilot_RL,119.8881957439051,
rating,trustworthiness,Hoe betrouwbaar vind jij dit gezicht?,Je beoordeelt dit op een schaal van 'Zeer onbetrouwbaar' tot 'Zeer betrouwbaar'.,Zeer onbetrouwbaar,Zeer betrouwbaar,stims\neutral_stims\id-1370_gender-M_age-19.png,19,M,0,2,2,3,0,42,42,44,3,2.293,01,F,False,False,2018_Oct_17_1257,pilot_RL,119.8881957439051,
rating,trustworthiness,Hoe betrouwbaar vind jij dit gezicht?,Je beoordeelt dit op een schaal van 'Zeer onbetrouwbaar' tot 'Zeer betrouwbaar'.,Zeer onbetrouwbaar,Zeer betrouwbaar,stims\neutral_stims\id-1270_gender-F_age-30.png,30,F,0,2,2,3,0,43,43,4,2,1.901,01,F,False,False,2018_Oct_17_1257,pilot_RL,119.8881957439051,
rating,trustworthiness,Hoe betrouwbaar vind jij dit gezicht?,Je beoordeelt dit op een schaal van 'Zeer onbetrouwbaar' tot 'Zeer betrouwbaar'.,Zeer onbetrouwbaar,Zeer betrouwbaar,stims\neutral_stims\id-1274_gender-F_age-33.png,33,F,0,2,2,3,0,44,44,6,-1,2.618,01,F,False,False,2018_Oct_17_1257,pilot_RL,119.8881957439051,
rating,trustworthiness,Hoe betrouwbaar vind jij dit gezicht?,Je beoordeelt dit op een schaal van 'Zeer onbetrouwbaar' tot 'Zeer betrouwbaar'.,Zeer onbetrouwbaar,Zeer betrouwbaar,stims\neutral_stims\id-1358_gender-F_age-32.png,32,F,0,2,2,3,0,45,45,37,2,1.876,01,F,False,False,2018_Oct_17_1257,pilot_RL,119.8881957439051,
rating,trustworthiness,Hoe betrouwbaar vind jij dit gezicht?,Je beoordeelt dit op een schaal van 'Zeer onbetrouwbaar' tot 'Zeer betrouwbaar'.,Zeer onbetrouwbaar,Zeer betrouwbaar,stims\neutral_stims\id-1279_gender-F_age-19.png,19,F,0,2,2,3,0,46,46,7,1,4.376,01,F,False,False,2018_Oct_17_1257,pilot_RL,119.8881957439051,
rating,trustworthiness,Hoe betrouwbaar vind jij dit gezicht?,Je beoordeelt dit op een schaal van 'Zeer onbetrouwbaar' tot 'Zeer betrouwbaar'.,Zeer onbetrouwbaar,Zeer betrouwbaar,stims\neutral_stims\id-1294_gender-F_age-26.png,26,F,0,2,2,3,0,47,47,14,-1,4.151,01,F,False,False,2018_Oct_17_1257,pilot_RL,119.8881957439051,
rating,trustworthiness,Hoe betrouwbaar vind jij dit gezicht?,Je beoordeelt dit op een schaal van 'Zeer onbetrouwbaar' tot 'Zeer betrouwbaar'.,Zeer onbetrouwbaar,Zeer betrouwbaar,stims\neutral_stims\id-1366_gender-F_age-24.png,24,F,0,2,2,3,0,48,48,42,1,3.61,01,F,False,False,2018_Oct_17_1257,pilot_RL,119.8881957439051,
rating,trustworthiness,Hoe betrouwbaar vind jij dit gezicht?,Je beoordeelt dit op een schaal van 'Zeer onbetrouwbaar' tot 'Zeer betrouwbaar'.,Zeer onbetrouwbaar,Zeer betrouwbaar,stims\neutral_stims\id-1361_gender-F_age-19.png,19,F,0,2,2,3,0,49,49,39,1,2.243,01,F,False,False,2018_Oct_17_1257,pilot_RL,119.8881957439051,
rating,trustworthiness,Hoe betrouwbaar vind jij dit gezicht?,Je beoordeelt dit op een schaal van 'Zeer onbetrouwbaar' tot 'Zeer betrouwbaar'.,Zeer onbetrouwbaar,Zeer betrouwbaar,,,,0,2,2,3,,,,,,,01,F,False,False,2018_Oct_17_1257,pilot_RL,119.8881957439051,
rating,dominance,Hoe dominant vind jij dit gezicht?,Je beoordeelt dit op een schaal van 'Helemaal niet dominant' tot 'Zeer dominant'.,Helemaal niet dominant,Zeer dominant,stims\neutral_stims\id-1273_gender-F_age-20.png,20,F,0,3,3,4,0,0,0,5,1,6.26,01,F,False,False,2018_Oct_17_1257,pilot_RL,119.8881957439051,
rating,dominance,Hoe dominant vind jij dit gezicht?,Je beoordeelt dit op een schaal van 'Helemaal niet dominant' tot 'Zeer dominant'.,Helemaal niet dominant,Zeer dominant,stims\neutral_stims\id-1354_gender-F_age-23.png,23,F,0,3,3,4,0,1,1,34,2,4.693,01,F,False,False,2018_Oct_17_1257,pilot_RL,119.8881957439051,
rating,dominance,Hoe dominant vind jij dit gezicht?,Je beoordeelt dit op een schaal van 'Helemaal niet dominant' tot 'Zeer dominant'.,Helemaal niet dominant,Zeer dominant,stims\neutral_stims\id-1345_gender-M_age-18.png,18,M,0,3,3,4,0,2,2,32,2,2.843,01,F,False,False,2018_Oct_17_1257,pilot_RL,119.8881957439051,
rating,dominance,Hoe dominant vind jij dit gezicht?,Je beoordeelt dit op een schaal van 'Helemaal niet dominant' tot 'Zeer dominant'.,Helemaal niet dominant,Zeer dominant,stims\neutral_stims\id-1367_gender-M_age-20.png,20,M,0,3,3,4,0,3,3,43,2,1.484,01,F,False,False,2018_Oct_17_1257,pilot_RL,119.8881957439051,
rating,dominance,Hoe dominant vind jij dit gezicht?,Je beoordeelt dit op een schaal van 'Helemaal niet dominant' tot 'Zeer dominant'.,Helemaal niet dominant,Zeer dominant,stims\neutral_stims\id-1335_gender-M_age-23.png,23,M,0,3,3,4,0,4,4,27,2,1.434,01,F,False,False,2018_Oct_17_1257,pilot_RL,119.8881957439051,
rating,dominance,Hoe dominant vind jij dit gezicht?,Je beoordeelt dit op een schaal van 'Helemaal niet dominant' tot 'Zeer dominant'.,Helemaal niet dominant,Zeer dominant,stims\neutral_stims\id-1295_gender-F_age-26.png,26,F,0,3,3,4,0,5,5,15,0,1.884,01,F,False,False,2018_Oct_17_1257,pilot_RL,119.8881957439051,
rating,dominance,Hoe dominant vind jij dit gezicht?,Je beoordeelt dit op een schaal van 'Helemaal niet dominant' tot 'Zeer dominant'.,Helemaal niet dominant,Zeer dominant,stims\neutral_stims\id-1356_gender-F_age-20.png,20,F,0,3,3,4,0,6,6,36,-3,3.285,01,F,False,False,2018_Oct_17_1257,pilot_RL,119.8881957439051,
rating,dominance,Hoe dominant vind jij dit gezicht?,Je beoordeelt dit op een schaal van 'Helemaal niet dominant' tot 'Zeer dominant'.,Helemaal niet dominant,Zeer dominant,stims\neutral_stims\id-1293_gender-F_age-31.png,31,F,0,3,3,4,0,7,7,13,1,4.743,01,F,False,False,2018_Oct_17_1257,pilot_RL,119.8881957439051,
rating,dominance,Hoe dominant vind jij dit gezicht?,Je beoordeelt dit op een schaal van 'Helemaal niet dominant' tot 'Zeer dominant'.,Helemaal niet dominant,Zeer dominant,stims\neutral_stims\id-1323_gender-F_age-23.png,23,F,0,3,3,4,0,8,8,26,-2,1.976,01,F,False,False,2018_Oct_17_1257,pilot_RL,119.8881957439051,
rating,dominance,Hoe dominant vind jij dit gezicht?,Je beoordeelt dit op een schaal van 'Helemaal niet dominant' tot 'Zeer dominant'.,Helemaal niet dominant,Zeer dominant,stims\neutral_stims\id-1318_gender-M_age-35.png,35,M,0,3,3,4,0,9,9,25,2,1.309,01,F,False,False,2018_Oct_17_1257,pilot_RL,119.8881957439051,
rating,dominance,Hoe dominant vind jij dit gezicht?,Je beoordeelt dit op een schaal van 'Helemaal niet dominant' tot 'Zeer dominant'.,Helemaal niet dominant,Zeer dominant,stims\neutral_stims\id-1290_gender-F_age-23.png,23,F,0,3,3,4,0,10,10,11,2,4.41,01,F,False,False,2018_Oct_17_1257,pilot_RL,119.8881957439051,
rating,dominance,Hoe dominant vind jij dit gezicht?,Je beoordeelt dit op een schaal van 'Helemaal niet dominant' tot 'Zeer dominant'.,Helemaal niet dominant,Zeer dominant,stims\neutral_stims\id-1362_gender-F_age-24.png,24,F,0,3,3,4,0,11,11,40,-1,1.726,01,F,False,False,2018_Oct_17_1257,pilot_RL,119.8881957439051,
rating,dominance,Hoe dominant vind jij dit gezicht?,Je beoordeelt dit op een schaal van 'Helemaal niet dominant' tot 'Zeer dominant'.,Helemaal niet dominant,Zeer dominant,stims\neutral_stims\id-1360_gender-F_age-20.png,20,F,0,3,3,4,0,12,12,38,-2,1.584,01,F,False,False,2018_Oct_17_1257,pilot_RL,119.8881957439051,
rating,dominance,Hoe dominant vind jij dit gezicht?,Je beoordeelt dit op een schaal van 'Helemaal niet dominant' tot 'Zeer dominant'.,Helemaal niet dominant,Zeer dominant,stims\neutral_stims\id-1380_gender-F_age-21.png,21,F,0,3,3,4,0,13,13,49,-2,4.335,01,F,False,False,2018_Oct_17_1257,pilot_RL,119.8881957439051,
rating,dominance,Hoe dominant vind jij dit gezicht?,Je beoordeelt dit op een schaal van 'Helemaal niet dominant' tot 'Zeer dominant'.,Helemaal niet dominant,Zeer dominant,stims\neutral_stims\id-1291_gender-F_age-24.png,24,F,0,3,3,4,0,14,14,12,1,2.434,01,F,False,False,2018_Oct_17_1257,pilot_RL,119.8881957439051,
rating,dominance,Hoe dominant vind jij dit gezicht?,Je beoordeelt dit op een schaal van 'Helemaal niet dominant' tot 'Zeer dominant'.,Helemaal niet dominant,Zeer dominant,stims\neutral_stims\id-1307_gender-F_age-22.png,22,F,0,3,3,4,0,15,15,20,-1,2.134,01,F,False,False,2018_Oct_17_1257,pilot_RL,119.8881957439051,
rating,dominance,Hoe dominant vind jij dit gezicht?,Je beoordeelt dit op een schaal van 'Helemaal niet dominant' tot 'Zeer dominant'.,Helemaal niet dominant,Zeer dominant,stims\neutral_stims\id-1311_gender-F_age-22.png,22,F,0,3,3,4,0,16,16,23,-4,2.81,01,F,False,False,2018_Oct_17_1257,pilot_RL,119.8881957439051,
rating,dominance,Hoe dominant vind jij dit gezicht?,Je beoordeelt dit op een schaal van 'Helemaal niet dominant' tot 'Zeer dominant'.,Helemaal niet dominant,Zeer dominant,stims\neutral_stims\id-1315_gender-M_age-16.png,16,M,0,3,3,4,0,17,17,24,3,2.226,01,F,False,False,2018_Oct_17_1257,pilot_RL,119.8881957439051,
rating,dominance,Hoe dominant vind jij dit gezicht?,Je beoordeelt dit op een schaal van 'Helemaal niet dominant' tot 'Zeer dominant'.,Helemaal niet dominant,Zeer dominant,stims\neutral_stims\id-1339_gender-F_age-30.png,30,F,0,3,3,4,0,18,18,28,-1,3.635,01,F,False,False,2018_Oct_17_1257,pilot_RL,119.8881957439051,
rating,dominance,Hoe dominant vind jij dit gezicht?,Je beoordeelt dit op een schaal van 'Helemaal niet dominant' tot 'Zeer dominant'.,Helemaal niet dominant,Zeer dominant,stims\neutral_stims\id-1264_gender-F_age-26.png,26,F,0,3,3,4,0,19,19,1,0,1.893,01,F,False,False,2018_Oct_17_1257,pilot_RL,119.8881957439051,
rating,dominance,Hoe dominant vind jij dit gezicht?,Je beoordeelt dit op een schaal van 'Helemaal niet dominant' tot 'Zeer dominant'.,Helemaal niet dominant,Zeer dominant,stims\neutral_stims\id-1296_gender-F_age-23.png,23,F,0,3,3,4,0,20,20,16,1,4.768,01,F,False,False,2018_Oct_17_1257,pilot_RL,119.8881957439051,
rating,dominance,Hoe dominant vind jij dit gezicht?,Je beoordeelt dit op een schaal van 'Helemaal niet dominant' tot 'Zeer dominant'.,Helemaal niet dominant,Zeer dominant,stims\neutral_stims\id-1274_gender-F_age-33.png,33,F,0,3,3,4,0,21,21,6,3,2.126,01,F,False,False,2018_Oct_17_1257,pilot_RL,119.8881957439051,
rating,dominance,Hoe dominant vind jij dit gezicht?,Je beoordeelt dit op een schaal van 'Helemaal niet dominant' tot 'Zeer dominant'.,Helemaal niet dominant,Zeer dominant,stims\neutral_stims\id-1309_gender-M_age-22.png,22,M,0,3,3,4,0,22,22,21,2,2.134,01,F,False,False,2018_Oct_17_1257,pilot_RL,119.8881957439051,
rating,dominance,Hoe dominant vind jij dit gezicht?,Je beoordeelt dit op een schaal van 'Helemaal niet dominant' tot 'Zeer dominant'.,Helemaal niet dominant,Zeer dominant,stims\neutral_stims\id-1344_gender-M_age-25.png,25,M,0,3,3,4,0,23,23,31,2,1.209,01,F,False,False,2018_Oct_17_1257,pilot_RL,119.8881957439051,
rating,dominance,Hoe dominant vind jij dit gezicht?,Je beoordeelt dit op een schaal van 'Helemaal niet dominant' tot 'Zeer dominant'.,Helemaal niet dominant,Zeer dominant,stims\neutral_stims\id-1297_gender-F_age-22.png,22,F,0,3,3,4,0,24,24,17,1,3.768,01,F,False,False,2018_Oct_17_1257,pilot_RL,119.8881957439051,
rating,dominance,Hoe dominant vind jij dit gezicht?,Je beoordeelt dit op een schaal van 'Helemaal niet dominant' tot 'Zeer dominant'.,Helemaal niet dominant,Zeer dominant,stims\neutral_stims\id-1342_gender-M_age-19.png,19,M,0,3,3,4,0,25,25,30,0,2.559,01,F,False,False,2018_Oct_17_1257,pilot_RL,119.8881957439051,
rating,dominance,Hoe dominant vind jij dit gezicht?,Je beoordeelt dit op een schaal van 'Helemaal niet dominant' tot 'Zeer dominant'.,Helemaal niet dominant,Zeer dominant,stims\neutral_stims\id-1266_gender-M_age-21.png,21,M,0,3,3,4,0,26,26,2,2,3.335,01,F,False,False,2018_Oct_17_1257,pilot_RL,119.8881957439051,
rating,dominance,Hoe dominant vind jij dit gezicht?,Je beoordeelt dit op een schaal van 'Helemaal niet dominant' tot 'Zeer dominant'.,Helemaal niet dominant,Zeer dominant,stims\neutral_stims\id-1294_gender-F_age-26.png,26,F,0,3,3,4,0,27,27,14,2,1.801,01,F,False,False,2018_Oct_17_1257,pilot_RL,119.8881957439051,
rating,dominance,Hoe dominant vind jij dit gezicht?,Je beoordeelt dit op een schaal van 'Helemaal niet dominant' tot 'Zeer dominant'.,Helemaal niet dominant,Zeer dominant,stims\neutral_stims\id-1280_gender-M_age-18.png,18,M,0,3,3,4,0,28,28,8,1,3.051,01,F,False,False,2018_Oct_17_1257,pilot_RL,119.8881957439051,
rating,dominance,Hoe dominant vind jij dit gezicht?,Je beoordeelt dit op een schaal van 'Helemaal niet dominant' tot 'Zeer dominant'.,Helemaal niet dominant,Zeer dominant,stims\neutral_stims\id-1279_gender-F_age-19.png,19,F,0,3,3,4,0,29,29,7,-4,2.476,01,F,False,False,2018_Oct_17_1257,pilot_RL,119.8881957439051,
rating,dominance,Hoe dominant vind jij dit gezicht?,Je beoordeelt dit op een schaal van 'Helemaal niet dominant' tot 'Zeer dominant'.,Helemaal niet dominant,Zeer dominant,stims\neutral_stims\id-1260_gender-F_age-22.png,22,F,0,3,3,4,0,30,30,0,-4,2.059,01,F,False,False,2018_Oct_17_1257,pilot_RL,119.8881957439051,
rating,dominance,Hoe dominant vind jij dit gezicht?,Je beoordeelt dit op een schaal van 'Helemaal niet dominant' tot 'Zeer dominant'.,Helemaal niet dominant,Zeer dominant,stims\neutral_stims\id-1289_gender-F_age-20.png,20,F,0,3,3,4,0,31,31,10,1,1.926,01,F,False,False,2018_Oct_17_1257,pilot_RL,119.8881957439051,
rating,dominance,Hoe dominant vind jij dit gezicht?,Je beoordeelt dit op een schaal van 'Helemaal niet dominant' tot 'Zeer dominant'.,Helemaal niet dominant,Zeer dominant,stims\neutral_stims\id-1306_gender-F_age-21.png,21,F,0,3,3,4,0,32,32,19,1,3.043,01,F,False,False,2018_Oct_17_1257,pilot_RL,119.8881957439051,
rating,dominance,Hoe dominant vind jij dit gezicht?,Je beoordeelt dit op een schaal van 'Helemaal niet dominant' tot 'Zeer dominant'.,Helemaal niet dominant,Zeer dominant,stims\neutral_stims\id-1363_gender-M_age-19.png,19,M,0,3,3,4,0,33,33,41,2,1.751,01,F,False,False,2018_Oct_17_1257,pilot_RL,119.8881957439051,
rating,dominance,Hoe dominant vind jij dit gezicht?,Je beoordeelt dit op een schaal van 'Helemaal niet dominant' tot 'Zeer dominant'.,Helemaal niet dominant,Zeer dominant,stims\neutral_stims\id-1377_gender-M_age-20.png,20,M,0,3,3,4,0,34,34,47,1,4.685,01,F,False,False,2018_Oct_17_1257,pilot_RL,119.8881957439051,
rating,dominance,Hoe dominant vind jij dit gezicht?,Je beoordeelt dit op een schaal van 'Helemaal niet dominant' tot 'Zeer dominant'.,Helemaal niet dominant,Zeer dominant,stims\neutral_stims\id-1378_gender-F_age-19.png,19,F,0,3,3,4,0,35,35,48,-4,2.201,01,F,False,False,2018_Oct_17_1257,pilot_RL,119.8881957439051,
rating,dominance,Hoe dominant vind jij dit gezicht?,Je beoordeelt dit op een schaal van 'Helemaal niet dominant' tot 'Zeer dominant'.,Helemaal niet dominant,Zeer dominant,stims\neutral_stims\id-1302_gender-F_age-30.png,30,F,0,3,3,4,0,36,36,18,-3,3.21,01,F,False,False,2018_Oct_17_1257,pilot_RL,119.8881957439051,
rating,dominance,Hoe dominant vind jij dit gezicht?,Je beoordeelt dit op een schaal van 'Helemaal niet dominant' tot 'Zeer dominant'.,Helemaal niet dominant,Zeer dominant,stims\neutral_stims\id-1376_gender-F_age-19.png,19,F,0,3,3,4,0,37,37,46,-2,1.459,01,F,False,False,2018_Oct_17_1257,pilot_RL,119.8881957439051,
rating,dominance,Hoe dominant vind jij dit gezicht?,Je beoordeelt dit op een schaal van 'Helemaal niet dominant' tot 'Zeer dominant'.,Helemaal niet dominant,Zeer dominant,stims\neutral_stims\id-1310_gender-F_age-28.png,28,F,0,3,3,4,0,38,38,22,-1,3.376,01,F,False,False,2018_Oct_17_1257,pilot_RL,119.8881957439051,
rating,dominance,Hoe dominant vind jij dit gezicht?,Je beoordeelt dit op een schaal van 'Helemaal niet dominant' tot 'Zeer dominant'.,Helemaal niet dominant,Zeer dominant,stims\neutral_stims\id-1355_gender-F_age-19.png,19,F,0,3,3,4,0,39,39,35,-1,1.926,01,F,False,False,2018_Oct_17_1257,pilot_RL,119.8881957439051,
rating,dominance,Hoe dominant vind jij dit gezicht?,Je beoordeelt dit op een schaal van 'Helemaal niet dominant' tot 'Zeer dominant'.,Helemaal niet dominant,Zeer dominant,stims\neutral_stims\id-1370_gender-M_age-19.png,19,M,0,3,3,4,0,40,40,44,0,2.751,01,F,False,False,2018_Oct_17_1257,pilot_RL,119.8881957439051,
rating,dominance,Hoe dominant vind jij dit gezicht?,Je beoordeelt dit op een schaal van 'Helemaal niet dominant' tot 'Zeer dominant'.,Helemaal niet dominant,Zeer dominant,stims\neutral_stims\id-1361_gender-F_age-19.png,19,F,0,3,3,4,0,41,41,39,-2,2.868,01,F,False,False,2018_Oct_17_1257,pilot_RL,119.8881957439051,
rating,dominance,Hoe dominant vind jij dit gezicht?,Je beoordeelt dit op een schaal van 'Helemaal niet dominant' tot 'Zeer dominant'.,Helemaal niet dominant,Zeer dominant,stims\neutral_stims\id-1358_gender-F_age-32.png,32,F,0,3,3,4,0,42,42,37,-2,1.684,01,F,False,False,2018_Oct_17_1257,pilot_RL,119.8881957439051,
rating,dominance,Hoe dominant vind jij dit gezicht?,Je beoordeelt dit op een schaal van 'Helemaal niet dominant' tot 'Zeer dominant'.,Helemaal niet dominant,Zeer dominant,stims\neutral_stims\id-1366_gender-F_age-24.png,24,F,0,3,3,4,0,43,43,42,-1,2.951,01,F,False,False,2018_Oct_17_1257,pilot_RL,119.8881957439051,
rating,dominance,Hoe dominant vind jij dit gezicht?,Je beoordeelt dit op een schaal van 'Helemaal niet dominant' tot 'Zeer dominant'.,Helemaal niet dominant,Zeer dominant,stims\neutral_stims\id-1270_gender-F_age-30.png,30,F,0,3,3,4,0,44,44,4,-2,1.643,01,F,False,False,2018_Oct_17_1257,pilot_RL,119.8881957439051,
rating,dominance,Hoe dominant vind jij dit gezicht?,Je beoordeelt dit op een schaal van 'Helemaal niet dominant' tot 'Zeer dominant'.,Helemaal niet dominant,Zeer dominant,stims\neutral_stims\id-1373_gender-F_age-30.png,30,F,0,3,3,4,0,45,45,45,-1,1.443,01,F,False,False,2018_Oct_17_1257,pilot_RL,119.8881957439051,
rating,dominance,Hoe dominant vind jij dit gezicht?,Je beoordeelt dit op een schaal van 'Helemaal niet dominant' tot 'Zeer dominant'.,Helemaal niet dominant,Zeer dominant,stims\neutral_stims\id-1285_gender-F_age-19.png,19,F,0,3,3,4,0,46,46,9,-1,1.368,01,F,False,False,2018_Oct_17_1257,pilot_RL,119.8881957439051,
rating,dominance,Hoe dominant vind jij dit gezicht?,Je beoordeelt dit op een schaal van 'Helemaal niet dominant' tot 'Zeer dominant'.,Helemaal niet dominant,Zeer dominant,stims\neutral_stims\id-1269_gender-F_age-23.png,23,F,0,3,3,4,0,47,47,3,2,2.801,01,F,False,False,2018_Oct_17_1257,pilot_RL,119.8881957439051,
rating,dominance,Hoe dominant vind jij dit gezicht?,Je beoordeelt dit op een schaal van 'Helemaal niet dominant' tot 'Zeer dominant'.,Helemaal niet dominant,Zeer dominant,stims\neutral_stims\id-1341_gender-M_age-19.png,19,M,0,3,3,4,0,48,48,29,1,2.418,01,F,False,False,2018_Oct_17_1257,pilot_RL,119.8881957439051,
rating,dominance,Hoe dominant vind jij dit gezicht?,Je beoordeelt dit op een schaal van 'Helemaal niet dominant' tot 'Zeer dominant'.,Helemaal niet dominant,Zeer dominant,stims\neutral_stims\id-1347_gender-F_age-27.png,27,F,0,3,3,4,0,49,49,33,1,1.326,01,F,False,False,2018_Oct_17_1257,pilot_RL,119.8881957439051,
rating,dominance,Hoe dominant vind jij dit gezicht?,Je beoordeelt dit op een schaal van 'Helemaal niet dominant' tot 'Zeer dominant'.,Helemaal niet dominant,Zeer dominant,,,,0,3,3,4,,,,,,,01,F,False,False,2018_Oct_17_1257,pilot_RL,119.8881957439051,
rating,attractiveness,Hoe aantrekkelijk vind jij dit gezicht?,Je beoordeelt dit op een schaal van 'Zeer onaantrekkelijk' tot 'Zeer aantrekkelijk'.,Zeer onaantrekkelijk,Zeer aantrekkelijk,stims\neutral_stims\id-1285_gender-F_age-19.png,19,F,0,4,4,2,0,0,0,9,1,2.651,01,F,False,False,2018_Oct_17_1257,pilot_RL,119.8881957439051,
rating,attractiveness,Hoe aantrekkelijk vind jij dit gezicht?,Je beoordeelt dit op een schaal van 'Zeer onaantrekkelijk' tot 'Zeer aantrekkelijk'.,Zeer onaantrekkelijk,Zeer aantrekkelijk,stims\neutral_stims\id-1289_gender-F_age-20.png,20,F,0,4,4,2,0,1,1,10,1,3.043,01,F,False,False,2018_Oct_17_1257,pilot_RL,119.8881957439051,
rating,attractiveness,Hoe aantrekkelijk vind jij dit gezicht?,Je beoordeelt dit op een schaal van 'Zeer onaantrekkelijk' tot 'Zeer aantrekkelijk'.,Zeer onaantrekkelijk,Zeer aantrekkelijk,stims\neutral_stims\id-1318_gender-M_age-35.png,35,M,0,4,4,2,0,2,2,25,-3,4.11,01,F,False,False,2018_Oct_17_1257,pilot_RL,119.8881957439051,
rating,attractiveness,Hoe aantrekkelijk vind jij dit gezicht?,Je beoordeelt dit op een schaal van 'Zeer onaantrekkelijk' tot 'Zeer aantrekkelijk'.,Zeer onaantrekkelijk,Zeer aantrekkelijk,stims\neutral_stims\id-1315_gender-M_age-16.png,16,M,0,4,4,2,0,3,3,24,-4,2.484,01,F,False,False,2018_Oct_17_1257,pilot_RL,119.8881957439051,
rating,attractiveness,Hoe aantrekkelijk vind jij dit gezicht?,Je beoordeelt dit op een schaal van 'Zeer onaantrekkelijk' tot 'Zeer aantrekkelijk'.,Zeer onaantrekkelijk,Zeer aantrekkelijk,stims\neutral_stims\id-1293_gender-F_age-31.png,31,F,0,4,4,2,0,4,4,13,-4,1.893,01,F,False,False,2018_Oct_17_1257,pilot_RL,119.8881957439051,
rating,attractiveness,Hoe aantrekkelijk vind jij dit gezicht?,Je beoordeelt dit op een schaal van 'Zeer onaantrekkelijk' tot 'Zeer aantrekkelijk'.,Zeer onaantrekkelijk,Zeer aantrekkelijk,stims\neutral_stims\id-1354_gender-F_age-23.png,23,F,0,4,4,2,0,5,5,34,-4,1.859,01,F,False,False,2018_Oct_17_1257,pilot_RL,119.8881957439051,
rating,attractiveness,Hoe aantrekkelijk vind jij dit gezicht?,Je beoordeelt dit op een schaal van 'Zeer onaantrekkelijk' tot 'Zeer aantrekkelijk'.,Zeer onaantrekkelijk,Zeer aantrekkelijk,stims\neutral_stims\id-1260_gender-F_age-22.png,22,F,0,4,4,2,0,6,6,0,-3,3.193,01,F,False,False,2018_Oct_17_1257,pilot_RL,119.8881957439051,
rating,attractiveness,Hoe aantrekkelijk vind jij dit gezicht?,Je beoordeelt dit op een schaal van 'Zeer onaantrekkelijk' tot 'Zeer aantrekkelijk'.,Zeer onaantrekkelijk,Zeer aantrekkelijk,stims\neutral_stims\id-1342_gender-M_age-19.png,19,M,0,4,4,2,0,7,7,30,-4,1.918,01,F,False,False,2018_Oct_17_1257,pilot_RL,119.8881957439051,
rating,attractiveness,Hoe aantrekkelijk vind jij dit gezicht?,Je beoordeelt dit op een schaal van 'Zeer onaantrekkelijk' tot 'Zeer aantrekkelijk'.,Zeer onaantrekkelijk,Zeer aantrekkelijk,stims\neutral_stims\id-1341_gender-M_age-19.png,19,M,0,4,4,2,0,8,8,29,-2,5.326,01,F,False,False,2018_Oct_17_1257,pilot_RL,119.8881957439051,
rating,attractiveness,Hoe aantrekkelijk vind jij dit gezicht?,Je beoordeelt dit op een schaal van 'Zeer onaantrekkelijk' tot 'Zeer aantrekkelijk'.,Zeer onaantrekkelijk,Zeer aantrekkelijk,stims\neutral_stims\id-1307_gender-F_age-22.png,22,F,0,4,4,2,0,9,9,20,-3,2.426,01,F,False,False,2018_Oct_17_1257,pilot_RL,119.8881957439051,
rating,attractiveness,Hoe aantrekkelijk vind jij dit gezicht?,Je beoordeelt dit op een schaal van 'Zeer onaantrekkelijk' tot 'Zeer aantrekkelijk'.,Zeer onaantrekkelijk,Zeer aantrekkelijk,stims\neutral_stims\id-1363_gender-M_age-19.png,19,M,0,4,4,2,0,10,10,41,-3,1.851,01,F,False,False,2018_Oct_17_1257,pilot_RL,119.8881957439051,
rating,attractiveness,Hoe aantrekkelijk vind jij dit gezicht?,Je beoordeelt dit op een schaal van 'Zeer onaantrekkelijk' tot 'Zeer aantrekkelijk'.,Zeer onaantrekkelijk,Zeer aantrekkelijk,stims\neutral_stims\id-1345_gender-M_age-18.png,18,M,0,4,4,2,0,11,11,32,1,4.81,01,F,False,False,2018_Oct_17_1257,pilot_RL,119.8881957439051,
rating,attractiveness,Hoe aantrekkelijk vind jij dit gezicht?,Je beoordeelt dit op een schaal van 'Zeer onaantrekkelijk' tot 'Zeer aantrekkelijk'.,Zeer onaantrekkelijk,Zeer aantrekkelijk,stims\neutral_stims\id-1280_gender-M_age-18.png,18,M,0,4,4,2,0,12,12,8,-4,1.909,01,F,False,False,2018_Oct_17_1257,pilot_RL,119.8881957439051,
rating,attractiveness,Hoe aantrekkelijk vind jij dit gezicht?,Je beoordeelt dit op een schaal van 'Zeer onaantrekkelijk' tot 'Zeer aantrekkelijk'.,Zeer onaantrekkelijk,Zeer aantrekkelijk,stims\neutral_stims\id-1306_gender-F_age-21.png,21,F,0,4,4,2,0,13,13,19,-1,2.276,01,F,False,False,2018_Oct_17_1257,pilot_RL,119.8881957439051,
rating,attractiveness,Hoe aantrekkelijk vind jij dit gezicht?,Je beoordeelt dit op een schaal van 'Zeer onaantrekkelijk' tot 'Zeer aantrekkelijk'.,Zeer onaantrekkelijk,Zeer aantrekkelijk,stims\neutral_stims\id-1378_gender-F_age-19.png,19,F,0,4,4,2,0,14,14,48,-1,4.193,01,F,False,False,2018_Oct_17_1257,pilot_RL,119.8881957439051,
rating,attractiveness,Hoe aantrekkelijk vind jij dit gezicht?,Je beoordeelt dit op een schaal van 'Zeer onaantrekkelijk' tot 'Zeer aantrekkelijk'.,Zeer onaantrekkelijk,Zeer aantrekkelijk,stims\neutral_stims\id-1367_gender-M_age-20.png,20,M,0,4,4,2,0,15,15,43,1,5.71,01,F,False,False,2018_Oct_17_1257,pilot_RL,119.8881957439051,
rating,attractiveness,Hoe aantrekkelijk vind jij dit gezicht?,Je beoordeelt dit op een schaal van 'Zeer onaantrekkelijk' tot 'Zeer aantrekkelijk'.,Zeer onaantrekkelijk,Zeer aantrekkelijk,stims\neutral_stims\id-1266_gender-M_age-21.png,21,M,0,4,4,2,0,16,16,2,1,2.118,01,F,False,False,2018_Oct_17_1257,pilot_RL,119.8881957439051,
rating,attractiveness,Hoe aantrekkelijk vind jij dit gezicht?,Je beoordeelt dit op een schaal van 'Zeer onaantrekkelijk' tot 'Zeer aantrekkelijk'.,Zeer onaantrekkelijk,Zeer aantrekkelijk,stims\neutral_stims\id-1373_gender-F_age-30.png,30,F,0,4,4,2,0,17,17,45,-3,2.335,01,F,False,False,2018_Oct_17_1257,pilot_RL,119.8881957439051,
rating,attractiveness,Hoe aantrekkelijk vind jij dit gezicht?,Je beoordeelt dit op een schaal van 'Zeer onaantrekkelijk' tot 'Zeer aantrekkelijk'.,Zeer onaantrekkelijk,Zeer aantrekkelijk,stims\neutral_stims\id-1380_gender-F_age-21.png,21,F,0,4,4,2,0,18,18,49,-3,3.026,01,F,False,False,2018_Oct_17_1257,pilot_RL,119.8881957439051,
rating,attractiveness,Hoe aantrekkelijk vind jij dit gezicht?,Je beoordeelt dit op een schaal van 'Zeer onaantrekkelijk' tot 'Zeer aantrekkelijk'.,Zeer onaantrekkelijk,Zeer aantrekkelijk,stims\neutral_stims\id-1279_gender-F_age-19.png,19,F,0,4,4,2,0,19,19,7,-2,4.376,01,F,False,False,2018_Oct_17_1257,pilot_RL,119.8881957439051,
rating,attractiveness,Hoe aantrekkelijk vind jij dit gezicht?,Je beoordeelt dit op een schaal van 'Zeer onaantrekkelijk' tot 'Zeer aantrekkelijk'.,Zeer onaantrekkelijk,Zeer aantrekkelijk,stims\neutral_stims\id-1358_gender-F_age-32.png,32,F,0,4,4,2,0,20,20,37,0,2.776,01,F,False,False,2018_Oct_17_1257,pilot_RL,119.8881957439051,
rating,attractiveness,Hoe aantrekkelijk vind jij dit gezicht?,Je beoordeelt dit op een schaal van 'Zeer onaantrekkelijk' tot 'Zeer aantrekkelijk'.,Zeer onaantrekkelijk,Zeer aantrekkelijk,stims\neutral_stims\id-1295_gender-F_age-26.png,26,F,0,4,4,2,0,21,21,15,-3,2.043,01,F,False,False,2018_Oct_17_1257,pilot_RL,119.8881957439051,
rating,attractiveness,Hoe aantrekkelijk vind jij dit gezicht?,Je beoordeelt dit op een schaal van 'Zeer onaantrekkelijk' tot 'Zeer aantrekkelijk'.,Zeer onaantrekkelijk,Zeer aantrekkelijk,stims\neutral_stims\id-1323_gender-F_age-23.png,23,F,0,4,4,2,0,22,22,26,-1,4.135,01,F,False,False,2018_Oct_17_1257,pilot_RL,119.8881957439051,
rating,attractiveness,Hoe aantrekkelijk vind jij dit gezicht?,Je beoordeelt dit op een schaal van 'Zeer onaantrekkelijk' tot 'Zeer aantrekkelijk'.,Zeer onaantrekkelijk,Zeer aantrekkelijk,stims\neutral_stims\id-1274_gender-F_age-33.png,33,F,0,4,4,2,0,23,23,6,-3,3.718,01,F,False,False,2018_Oct_17_1257,pilot_RL,119.8881957439051,
rating,attractiveness,Hoe aantrekkelijk vind jij dit gezicht?,Je beoordeelt dit op een schaal van 'Zeer onaantrekkelijk' tot 'Zeer aantrekkelijk'.,Zeer onaantrekkelijk,Zeer aantrekkelijk,stims\neutral_stims\id-1297_gender-F_age-22.png,22,F,0,4,4,2,0,24,24,17,-3,2.293,01,F,False,False,2018_Oct_17_1257,pilot_RL,119.8881957439051,
rating,attractiveness,Hoe aantrekkelijk vind jij dit gezicht?,Je beoordeelt dit op een schaal van 'Zeer onaantrekkelijk' tot 'Zeer aantrekkelijk'.,Zeer onaantrekkelijk,Zeer aantrekkelijk,stims\neutral_stims\id-1273_gender-F_age-20.png,20,F,0,4,4,2,0,25,25,5,0,3.026,01,F,False,False,2018_Oct_17_1257,pilot_RL,119.8881957439051,
rating,attractiveness,Hoe aantrekkelijk vind jij dit gezicht?,Je beoordeelt dit op een schaal van 'Zeer onaantrekkelijk' tot 'Zeer aantrekkelijk'.,Zeer onaantrekkelijk,Zeer aantrekkelijk,stims\neutral_stims\id-1302_gender-F_age-30.png,30,F,0,4,4,2,0,26,26,18,-3,2.434,01,F,False,False,2018_Oct_17_1257,pilot_RL,119.8881957439051,
rating,attractiveness,Hoe aantrekkelijk vind jij dit gezicht?,Je beoordeelt dit op een schaal van 'Zeer onaantrekkelijk' tot 'Zeer aantrekkelijk'.,Zeer onaantrekkelijk,Zeer aantrekkelijk,stims\neutral_stims\id-1296_gender-F_age-23.png,23,F,0,4,4,2,0,27,27,16,-3,2.001,01,F,False,False,2018_Oct_17_1257,pilot_RL,119.8881957439051,
rating,attractiveness,Hoe aantrekkelijk vind jij dit gezicht?,Je beoordeelt dit op een schaal van 'Zeer onaantrekkelijk' tot 'Zeer aantrekkelijk'.,Zeer onaantrekkelijk,Zeer aantrekkelijk,stims\neutral_stims\id-1366_gender-F_age-24.png,24,F,0,4,4,2,0,28,28,42,-2,3.193,01,F,False,False,2018_Oct_17_1257,pilot_RL,119.8881957439051,
rating,attractiveness,Hoe aantrekkelijk vind jij dit gezicht?,Je beoordeelt dit op een schaal van 'Zeer onaantrekkelijk' tot 'Zeer aantrekkelijk'.,Zeer onaantrekkelijk,Zeer aantrekkelijk,stims\neutral_stims\id-1270_gender-F_age-30.png,30,F,0,4,4,2,0,29,29,4,-1,4.476,01,F,False,False,2018_Oct_17_1257,pilot_RL,119.8881957439051,
rating,attractiveness,Hoe aantrekkelijk vind jij dit gezicht?,Je beoordeelt dit op een schaal van 'Zeer onaantrekkelijk' tot 'Zeer aantrekkelijk'.,Zeer onaantrekkelijk,Zeer aantrekkelijk,stims\neutral_stims\id-1344_gender-M_age-25.png,25,M,0,4,4,2,0,30,30,31,-4,3.901,01,F,False,False,2018_Oct_17_1257,pilot_RL,119.8881957439051,
rating,attractiveness,Hoe aantrekkelijk vind jij dit gezicht?,Je beoordeelt dit op een schaal van 'Zeer onaantrekkelijk' tot 'Zeer aantrekkelijk'.,Zeer onaantrekkelijk,Zeer aantrekkelijk,stims\neutral_stims\id-1290_gender-F_age-23.png,23,F,0,4,4,2,0,31,31,11,-3,4.143,01,F,False,False,2018_Oct_17_1257,pilot_RL,119.8881957439051,
rating,attractiveness,Hoe aantrekkelijk vind jij dit gezicht?,Je beoordeelt dit op een schaal van 'Zeer onaantrekkelijk' tot 'Zeer aantrekkelijk'.,Zeer onaantrekkelijk,Zeer aantrekkelijk,stims\neutral_stims\id-1269_gender-F_age-23.png,23,F,0,4,4,2,0,32,32,3,-4,1.776,01,F,False,False,2018_Oct_17_1257,pilot_RL,119.8881957439051,
rating,attractiveness,Hoe aantrekkelijk vind jij dit gezicht?,Je beoordeelt dit op een schaal van 'Zeer onaantrekkelijk' tot 'Zeer aantrekkelijk'.,Zeer onaantrekkelijk,Zeer aantrekkelijk,stims\neutral_stims\id-1347_gender-F_age-27.png,27,F,0,4,4,2,0,33,33,33,-3,1.893,01,F,False,False,2018_Oct_17_1257,pilot_RL,119.8881957439051,
rating,attractiveness,Hoe aantrekkelijk vind jij dit gezicht?,Je beoordeelt dit op een schaal van 'Zeer onaantrekkelijk' tot 'Zeer aantrekkelijk'.,Zeer onaantrekkelijk,Zeer aantrekkelijk,stims\neutral_stims\id-1360_gender-F_age-20.png,20,F,0,4,4,2,0,34,34,38,-1,5.727,01,F,False,False,2018_Oct_17_1257,pilot_RL,119.8881957439051,
rating,attractiveness,Hoe aantrekkelijk vind jij dit gezicht?,Je beoordeelt dit op een schaal van 'Zeer onaantrekkelijk' tot 'Zeer aantrekkelijk'.,Zeer onaantrekkelijk,Zeer aantrekkelijk,stims\neutral_stims\id-1356_gender-F_age-20.png,20,F,0,4,4,2,0,35,35,36,-1,4.685,01,F,False,False,2018_Oct_17_1257,pilot_RL,119.8881957439051,
rating,attractiveness,Hoe aantrekkelijk vind jij dit gezicht?,Je beoordeelt dit op een schaal van 'Zeer onaantrekkelijk' tot 'Zeer aantrekkelijk'.,Zeer onaantrekkelijk,Zeer aantrekkelijk,stims\neutral_stims\id-1291_gender-F_age-24.png,24,F,0,4,4,2,0,36,36,12,0,3.71,01,F,False,False,2018_Oct_17_1257,pilot_RL,119.8881957439051,
rating,attractiveness,Hoe aantrekkelijk vind jij dit gezicht?,Je beoordeelt dit op een schaal van 'Zeer onaantrekkelijk' tot 'Zeer aantrekkelijk'.,Zeer onaantrekkelijk,Zeer aantrekkelijk,stims\neutral_stims\id-1339_gender-F_age-30.png,30,F,0,4,4,2,0,37,37,28,1,1.676,01,F,False,False,2018_Oct_17_1257,pilot_RL,119.8881957439051,
rating,attractiveness,Hoe aantrekkelijk vind jij dit gezicht?,Je beoordeelt dit op een schaal van 'Zeer onaantrekkelijk' tot 'Zeer aantrekkelijk'.,Zeer onaantrekkelijk,Zeer aantrekkelijk,stims\neutral_stims\id-1309_gender-M_age-22.png,22,M,0,4,4,2,0,38,38,21,-3,3.068,01,F,False,False,2018_Oct_17_1257,pilot_RL,119.8881957439051,
rating,attractiveness,Hoe aantrekkelijk vind jij dit gezicht?,Je beoordeelt dit op een schaal van 'Zeer onaantrekkelijk' tot 'Zeer aantrekkelijk'.,Zeer onaantrekkelijk,Zeer aantrekkelijk,stims\neutral_stims\id-1370_gender-M_age-19.png,19,M,0,4,4,2,0,39,39,44,2,2.884,01,F,False,False,2018_Oct_17_1257,pilot_RL,119.8881957439051,
rating,attractiveness,Hoe aantrekkelijk vind jij dit gezicht?,Je beoordeelt dit op een schaal van 'Zeer onaantrekkelijk' tot 'Zeer aantrekkelijk'.,Zeer onaantrekkelijk,Zeer aantrekkelijk,stims\neutral_stims\id-1355_gender-F_age-19.png,19,F,0,4,4,2,0,40,40,35,-4,4.585,01,F,False,False,2018_Oct_17_1257,pilot_RL,119.8881957439051,
rating,attractiveness,Hoe aantrekkelijk vind jij dit gezicht?,Je beoordeelt dit op een schaal van 'Zeer onaantrekkelijk' tot 'Zeer aantrekkelijk'.,Zeer onaantrekkelijk,Zeer aantrekkelijk,stims\neutral_stims\id-1361_gender-F_age-19.png,19,F,0,4,4,2,0,41,41,39,1,3.11,01,F,False,False,2018_Oct_17_1257,pilot_RL,119.8881957439051,
rating,attractiveness,Hoe aantrekkelijk vind jij dit gezicht?,Je beoordeelt dit op een schaal van 'Zeer onaantrekkelijk' tot 'Zeer aantrekkelijk'.,Zeer onaantrekkelijk,Zeer aantrekkelijk,stims\neutral_stims\id-1311_gender-F_age-22.png,22,F,0,4,4,2,0,42,42,23,1,1.951,01,F,False,False,2018_Oct_17_1257,pilot_RL,119.8881957439051,
rating,attractiveness,Hoe aantrekkelijk vind jij dit gezicht?,Je beoordeelt dit op een schaal van 'Zeer onaantrekkelijk' tot 'Zeer aantrekkelijk'.,Zeer onaantrekkelijk,Zeer aantrekkelijk,stims\neutral_stims\id-1362_gender-F_age-24.png,24,F,0,4,4,2,0,43,43,40,-1,2.751,01,F,False,False,2018_Oct_17_1257,pilot_RL,119.8881957439051,
rating,attractiveness,Hoe aantrekkelijk vind jij dit gezicht?,Je beoordeelt dit op een schaal van 'Zeer onaantrekkelijk' tot 'Zeer aantrekkelijk'.,Zeer onaantrekkelijk,Zeer aantrekkelijk,stims\neutral_stims\id-1264_gender-F_age-26.png,26,F,0,4,4,2,0,44,44,1,-2,2.793,01,F,False,False,2018_Oct_17_1257,pilot_RL,119.8881957439051,
rating,attractiveness,Hoe aantrekkelijk vind jij dit gezicht?,Je beoordeelt dit op een schaal van 'Zeer onaantrekkelijk' tot 'Zeer aantrekkelijk'.,Zeer onaantrekkelijk,Zeer aantrekkelijk,stims\neutral_stims\id-1376_gender-F_age-19.png,19,F,0,4,4,2,0,45,45,46,3,2.059,01,F,False,False,2018_Oct_17_1257,pilot_RL,119.8881957439051,
rating,attractiveness,Hoe aantrekkelijk vind jij dit gezicht?,Je beoordeelt dit op een schaal van 'Zeer onaantrekkelijk' tot 'Zeer aantrekkelijk'.,Zeer onaantrekkelijk,Zeer aantrekkelijk,stims\neutral_stims\id-1310_gender-F_age-28.png,28,F,0,4,4,2,0,46,46,22,-1,2.743,01,F,False,False,2018_Oct_17_1257,pilot_RL,119.8881957439051,
rating,attractiveness,Hoe aantrekkelijk vind jij dit gezicht?,Je beoordeelt dit op een schaal van 'Zeer onaantrekkelijk' tot 'Zeer aantrekkelijk'.,Zeer onaantrekkelijk,Zeer aantrekkelijk,stims\neutral_stims\id-1335_gender-M_age-23.png,23,M,0,4,4,2,0,47,47,27,-1,1.951,01,F,False,False,2018_Oct_17_1257,pilot_RL,119.8881957439051,
rating,attractiveness,Hoe aantrekkelijk vind jij dit gezicht?,Je beoordeelt dit op een schaal van 'Zeer onaantrekkelijk' tot 'Zeer aantrekkelijk'.,Zeer onaantrekkelijk,Zeer aantrekkelijk,stims\neutral_stims\id-1377_gender-M_age-20.png,20,M,0,4,4,2,0,48,48,47,-1,2.234,01,F,False,False,2018_Oct_17_1257,pilot_RL,119.8881957439051,
rating,attractiveness,Hoe aantrekkelijk vind jij dit gezicht?,Je beoordeelt dit op een schaal van 'Zeer onaantrekkelijk' tot 'Zeer aantrekkelijk'.,Zeer onaantrekkelijk,Zeer aantrekkelijk,stims\neutral_stims\id-1294_gender-F_age-26.png,26,F,0,4,4,2,0,49,49,14,-2,2.743,01,F,False,False,2018_Oct_17_1257,pilot_RL,119.8881957439051,
rating,attractiveness,Hoe aantrekkelijk vind jij dit gezicht?,Je beoordeelt dit op een schaal van 'Zeer onaantrekkelijk' tot 'Zeer aantrekkelijk'.,Zeer onaantrekkelijk,Zeer aantrekkelijk,,,,0,4,4,2,,,,,,,01,F,False,False,2018_Oct_17_1257,pilot_RL,119.8881957439051,
