RL_session_notice,RL_wrong_instruction,RL_wrong_instruction_n,feedback_txt_incorrect,number_str,practice_reps,session_name,stim_csv,trial_csv,phase,condition,left_face,right_face,rewarded_resp,correct_resp,rating_attribute,rating_question,rating_question_details,rating_low,rating_high,reward_prob,stim_file,pre_rating_scales_loop.thisRepN,pre_rating_scales_loop.thisTrialN,pre_rating_scales_loop.thisN,pre_rating_scales_loop.thisIndex,session_loop.thisRepN,session_loop.thisTrialN,session_loop.thisN,session_loop.thisIndex,practice_trials.thisRepN,practice_trials.thisTrialN,practice_trials.thisN,practice_trials.thisIndex,real_trials.thisRepN,real_trials.thisTrialN,real_trials.thisN,real_trials.thisIndex,post_rating_loop.thisRepN,post_rating_loop.thisTrialN,post_rating_loop.thisN,post_rating_loop.thisIndex,post_neutral_face_loop.thisRepN,post_neutral_face_loop.thisTrialN,post_neutral_face_loop.thisN,post_neutral_face_loop.thisIndex,practice_response.keys,practice_response.corr,practice_response.rt,real_RL_response.keys,real_RL_response.corr,real_RL_response.rt,post_rating_scale.response,post_rating_scale.rt,participant,participant_gender,skip_practice,skip_ratings,date,expName,frameRate,
 ,VERLIES je 0.1 euro.,"gestraft wordt, doordat je 0.1 euro verliest.",(0.1 euro verloren),eerste,1,plusmin,logs\sub-01\stims_session-plusmin.csv,logs\sub-01\trials_phase-learning_session-plusmin.csv,practice,90_vs_10,stims/practice_stims/clinton.jpg,stims/practice_stims/obama.jpg,f,j,,,,,,,,,,,,0,0,0,0,0,0,0,9,,,,,,,,,,,,,f,1,1.4838307847385295,,,,,,01,F,False,True,2018_Oct_17_1318,pilot_RL,119.99249366503082,
 ,VERLIES je 0.1 euro.,"gestraft wordt, doordat je 0.1 euro verliest.",(0.1 euro verloren),eerste,1,plusmin,logs\sub-01\stims_session-plusmin.csv,logs\sub-01\trials_phase-learning_session-plusmin.csv,practice,70_vs_30,stims/practice_stims/trump.jpg,stims/practice_stims/bush.jpg,j,j,,,,,,,,,,,,0,0,0,0,0,1,1,10,,,,,,,,,,,,,j,1,1.5505043165176176,,,,,,01,F,False,True,2018_Oct_17_1318,pilot_RL,119.99249366503082,
 ,VERLIES je 0.1 euro.,"gestraft wordt, doordat je 0.1 euro verliest.",(0.1 euro verloren),eerste,1,plusmin,logs\sub-01\stims_session-plusmin.csv,logs\sub-01\trials_phase-learning_session-plusmin.csv,practice,90_vs_10,stims/practice_stims/obama.jpg,stims/practice_stims/clinton.jpg,f,f,,,,,,,,,,,,0,0,0,0,0,2,2,3,,,,,,,,,,,,,j,0,1.3003536198521033,,,,,,01,F,False,True,2018_Oct_17_1318,pilot_RL,119.99249366503082,
 ,VERLIES je 0.1 euro.,"gestraft wordt, doordat je 0.1 euro verliest.",(0.1 euro verloren),eerste,1,plusmin,logs\sub-01\stims_session-plusmin.csv,logs\sub-01\trials_phase-learning_session-plusmin.csv,practice,90_vs_10,stims/practice_stims/clinton.jpg,stims/practice_stims/obama.jpg,j,j,,,,,,,,,,,,0,0,0,0,0,3,3,6,,,,,,,,,,,,,j,1,1.4087772669736296,,,,,,01,F,False,True,2018_Oct_17_1318,pilot_RL,119.99249366503082,
 ,VERLIES je 0.1 euro.,"gestraft wordt, doordat je 0.1 euro verliest.",(0.1 euro verloren),eerste,1,plusmin,logs\sub-01\stims_session-plusmin.csv,logs\sub-01\trials_phase-learning_session-plusmin.csv,practice,90_vs_10,stims/practice_stims/clinton.jpg,stims/practice_stims/obama.jpg,j,j,,,,,,,,,,,,0,0,0,0,0,4,4,5,,,,,,,,,,,,,j,1,0.8670693371677771,,,,,,01,F,False,True,2018_Oct_17_1318,pilot_RL,119.99249366503082,
 ,VERLIES je 0.1 euro.,"gestraft wordt, doordat je 0.1 euro verliest.",(0.1 euro verloren),eerste,1,plusmin,logs\sub-01\stims_session-plusmin.csv,logs\sub-01\trials_phase-learning_session-plusmin.csv,practice,70_vs_30,stims/practice_stims/bush.jpg,stims/practice_stims/trump.jpg,f,f,,,,,,,,,,,,0,0,0,0,0,5,5,16,,,,,,,,,,,,,f,1,0.9337419065996073,,,,,,01,F,False,True,2018_Oct_17_1318,pilot_RL,119.99249366503082,
 ,VERLIES je 0.1 euro.,"gestraft wordt, doordat je 0.1 euro verliest.",(0.1 euro verloren),eerste,1,plusmin,logs\sub-01\stims_session-plusmin.csv,logs\sub-01\trials_phase-learning_session-plusmin.csv,practice,70_vs_30,stims/practice_stims/trump.jpg,stims/practice_stims/bush.jpg,f,j,,,,,,,,,,,,0,0,0,0,0,6,6,14,,,,,,,,,,,,,j,0,0.9253635246423073,,,,,,01,F,False,True,2018_Oct_17_1318,pilot_RL,119.99249366503082,
 ,VERLIES je 0.1 euro.,"gestraft wordt, doordat je 0.1 euro verliest.",(0.1 euro verloren),eerste,1,plusmin,logs\sub-01\stims_session-plusmin.csv,logs\sub-01\trials_phase-learning_session-plusmin.csv,practice,90_vs_10,stims/practice_stims/clinton.jpg,stims/practice_stims/obama.jpg,j,j,,,,,,,,,,,,0,0,0,0,0,7,7,8,,,,,,,,,,,,,f,0,1.0171006634482183,,,,,,01,F,False,True,2018_Oct_17_1318,pilot_RL,119.99249366503082,
 ,VERLIES je 0.1 euro.,"gestraft wordt, doordat je 0.1 euro verliest.",(0.1 euro verloren),eerste,1,plusmin,logs\sub-01\stims_session-plusmin.csv,logs\sub-01\trials_phase-learning_session-plusmin.csv,practice,70_vs_30,stims/practice_stims/bush.jpg,stims/practice_stims/trump.jpg,j,f,,,,,,,,,,,,0,0,0,0,0,8,8,18,,,,,,,,,,,,,f,0,0.9587554684840143,,,,,,01,F,False,True,2018_Oct_17_1318,pilot_RL,119.99249366503082,
 ,VERLIES je 0.1 euro.,"gestraft wordt, doordat je 0.1 euro verliest.",(0.1 euro verloren),eerste,1,plusmin,logs\sub-01\stims_session-plusmin.csv,logs\sub-01\trials_phase-learning_session-plusmin.csv,practice,90_vs_10,stims/practice_stims/obama.jpg,stims/practice_stims/clinton.jpg,f,f,,,,,,,,,,,,0,0,0,0,0,9,9,1,,,,,,,,,,,,,j,0,1.0837674584472552,,,,,,01,F,False,True,2018_Oct_17_1318,pilot_RL,119.99249366503082,
 ,VERLIES je 0.1 euro.,"gestraft wordt, doordat je 0.1 euro verliest.",(0.1 euro verloren),eerste,1,plusmin,logs\sub-01\stims_session-plusmin.csv,logs\sub-01\trials_phase-learning_session-plusmin.csv,practice,70_vs_30,stims/practice_stims/trump.jpg,stims/practice_stims/bush.jpg,j,j,,,,,,,,,,,,0,0,0,0,0,10,10,12,,,,,,,,,,,,,j,1,1.0170689040678553,,,,,,01,F,False,True,2018_Oct_17_1318,pilot_RL,119.99249366503082,
 ,VERLIES je 0.1 euro.,"gestraft wordt, doordat je 0.1 euro verliest.",(0.1 euro verloren),eerste,1,plusmin,logs\sub-01\stims_session-plusmin.csv,logs\sub-01\trials_phase-learning_session-plusmin.csv,practice,70_vs_30,stims/practice_stims/bush.jpg,stims/practice_stims/trump.jpg,f,f,,,,,,,,,,,,0,0,0,0,0,11,11,15,,,,,,,,,,,,,j,0,1.3837665922474116,,,,,,01,F,False,True,2018_Oct_17_1318,pilot_RL,119.99249366503082,
 ,VERLIES je 0.1 euro.,"gestraft wordt, doordat je 0.1 euro verliest.",(0.1 euro verloren),eerste,1,plusmin,logs\sub-01\stims_session-plusmin.csv,logs\sub-01\trials_phase-learning_session-plusmin.csv,practice,90_vs_10,stims/practice_stims/clinton.jpg,stims/practice_stims/obama.jpg,j,j,,,,,,,,,,,,0,0,0,0,0,12,12,7,,,,,,,,,,,,,j,1,0.8919873000704683,,,,,,01,F,False,True,2018_Oct_17_1318,pilot_RL,119.99249366503082,
 ,VERLIES je 0.1 euro.,"gestraft wordt, doordat je 0.1 euro verliest.",(0.1 euro verloren),eerste,1,plusmin,logs\sub-01\stims_session-plusmin.csv,logs\sub-01\trials_phase-learning_session-plusmin.csv,practice,70_vs_30,stims/practice_stims/bush.jpg,stims/practice_stims/trump.jpg,j,f,,,,,,,,,,,,0,0,0,0,0,13,13,19,,,,,,,,,,,,,f,0,0.9337050143512897,,,,,,01,F,False,True,2018_Oct_17_1318,pilot_RL,119.99249366503082,
 ,VERLIES je 0.1 euro.,"gestraft wordt, doordat je 0.1 euro verliest.",(0.1 euro verloren),eerste,1,plusmin,logs\sub-01\stims_session-plusmin.csv,logs\sub-01\trials_phase-learning_session-plusmin.csv,practice,70_vs_30,stims/practice_stims/trump.jpg,stims/practice_stims/bush.jpg,j,j,,,,,,,,,,,,0,0,0,0,0,14,14,11,,,,,,,,,,,,,j,1,1.125400801829528,,,,,,01,F,False,True,2018_Oct_17_1318,pilot_RL,119.99249366503082,
 ,VERLIES je 0.1 euro.,"gestraft wordt, doordat je 0.1 euro verliest.",(0.1 euro verloren),eerste,1,plusmin,logs\sub-01\stims_session-plusmin.csv,logs\sub-01\trials_phase-learning_session-plusmin.csv,practice,90_vs_10,stims/practice_stims/obama.jpg,stims/practice_stims/clinton.jpg,f,f,,,,,,,,,,,,0,0,0,0,0,15,15,2,,,,,,,,,,,,,f,1,0.5670333111193031,,,,,,01,F,False,True,2018_Oct_17_1318,pilot_RL,119.99249366503082,
 ,VERLIES je 0.1 euro.,"gestraft wordt, doordat je 0.1 euro verliest.",(0.1 euro verloren),eerste,1,plusmin,logs\sub-01\stims_session-plusmin.csv,logs\sub-01\trials_phase-learning_session-plusmin.csv,practice,70_vs_30,stims/practice_stims/bush.jpg,stims/practice_stims/trump.jpg,f,f,,,,,,,,,,,,0,0,0,0,0,16,16,17,,,,,,,,,,,,,f,1,0.6670217943028547,,,,,,01,F,False,True,2018_Oct_17_1318,pilot_RL,119.99249366503082,
 ,VERLIES je 0.1 euro.,"gestraft wordt, doordat je 0.1 euro verliest.",(0.1 euro verloren),eerste,1,plusmin,logs\sub-01\stims_session-plusmin.csv,logs\sub-01\trials_phase-learning_session-plusmin.csv,practice,90_vs_10,stims/practice_stims/obama.jpg,stims/practice_stims/clinton.jpg,f,f,,,,,,,,,,,,0,0,0,0,0,17,17,0,,,,,,,,,,,,,f,1,0.6503606294281781,,,,,,01,F,False,True,2018_Oct_17_1318,pilot_RL,119.99249366503082,
 ,VERLIES je 0.1 euro.,"gestraft wordt, doordat je 0.1 euro verliest.",(0.1 euro verloren),eerste,1,plusmin,logs\sub-01\stims_session-plusmin.csv,logs\sub-01\trials_phase-learning_session-plusmin.csv,practice,90_vs_10,stims/practice_stims/obama.jpg,stims/practice_stims/clinton.jpg,f,f,,,,,,,,,,,,0,0,0,0,0,18,18,4,,,,,,,,,,,,,f,1,0.8503295757691376,,,,,,01,F,False,True,2018_Oct_17_1318,pilot_RL,119.99249366503082,
 ,VERLIES je 0.1 euro.,"gestraft wordt, doordat je 0.1 euro verliest.",(0.1 euro verloren),eerste,1,plusmin,logs\sub-01\stims_session-plusmin.csv,logs\sub-01\trials_phase-learning_session-plusmin.csv,practice,70_vs_30,stims/practice_stims/trump.jpg,stims/practice_stims/bush.jpg,j,j,,,,,,,,,,,,0,0,0,0,0,19,19,13,,,,,,,,,,,,,j,1,0.8920020569348708,,,,,,01,F,False,True,2018_Oct_17_1318,pilot_RL,119.99249366503082,
 ,VERLIES je 0.1 euro.,"gestraft wordt, doordat je 0.1 euro verliest.",(0.1 euro verloren),eerste,1,plusmin,logs\sub-01\stims_session-plusmin.csv,logs\sub-01\trials_phase-learning_session-plusmin.csv,learning,64_vs_36,logs\sub-01\id-1354_gender-F_age-23_rewardprob-36_session-plusmin.png,logs\sub-01\id-1269_gender-F_age-23_rewardprob-64_session-plusmin.png,j,j,,,,,,,,,,,,0,0,0,0,,,,,0,0,0,98,,,,,,,,,,,,j,1,0.7503718895604834,,,01,F,False,True,2018_Oct_17_1318,pilot_RL,119.99249366503082,
 ,VERLIES je 0.1 euro.,"gestraft wordt, doordat je 0.1 euro verliest.",(0.1 euro verloren),eerste,1,plusmin,logs\sub-01\stims_session-plusmin.csv,logs\sub-01\trials_phase-learning_session-plusmin.csv,learning,80_vs_20,logs\sub-01\id-1373_gender-F_age-30_rewardprob-20_session-plusmin.png,logs\sub-01\id-1307_gender-F_age-22_rewardprob-80_session-plusmin.png,j,j,,,,,,,,,,,,0,0,0,0,,,,,0,1,1,46,,,,,,,,,,,,f,0,1.1087415617075749,,,01,F,False,True,2018_Oct_17_1318,pilot_RL,119.99249366503082,
 ,VERLIES je 0.1 euro.,"gestraft wordt, doordat je 0.1 euro verliest.",(0.1 euro verloren),eerste,1,plusmin,logs\sub-01\stims_session-plusmin.csv,logs\sub-01\trials_phase-learning_session-plusmin.csv,learning,64_vs_36,logs\sub-01\id-1354_gender-F_age-23_rewardprob-36_session-plusmin.png,logs\sub-01\id-1269_gender-F_age-23_rewardprob-64_session-plusmin.png,j,j,,,,,,,,,,,,0,0,0,0,,,,,0,2,2,85,,,,,,,,,,,,j,1,1.2170994444168173,,,01,F,False,True,2018_Oct_17_1318,pilot_RL,119.99249366503082,
 ,VERLIES je 0.1 euro.,"gestraft wordt, doordat je 0.1 euro verliest.",(0.1 euro verloren),eerste,1,plusmin,logs\sub-01\stims_session-plusmin.csv,logs\sub-01\trials_phase-learning_session-plusmin.csv,learning,64_vs_36,logs\sub-01\id-1354_gender-F_age-23_rewardprob-36_session-plusmin.png,logs\sub-01\id-1269_gender-F_age-23_rewardprob-64_session-plusmin.png,f,j,,,,,,,,,,,,0,0,0,0,,,,,0,3,3,76,,,,,,,,,,,,j,0,0.9420227647060528,,,01,F,False,True,2018_Oct_17_1318,pilot_RL,119.99249366503082,
 ,VERLIES je 0.1 euro.,"gestraft wordt, doordat je 0.1 euro verliest.",(0.1 euro verloren),eerste,1,plusmin,logs\sub-01\stims_session-plusmin.csv,logs\sub-01\trials_phase-learning_session-plusmin.csv,learning,80_vs_20,logs\sub-01\id-1307_gender-F_age-22_rewardprob-80_session-plusmin.png,logs\sub-01\id-1373_gender-F_age-30_rewardprob-20_session-plusmin.png,f,f,,,,,,,,,,,,0,0,0,0,,,,,0,4,4,15,,,,,,,,,,,,f,1,0.7003470113268122,,,01,F,False,True,2018_Oct_17_1318,pilot_RL,119.99249366503082,
 ,VERLIES je 0.1 euro.,"gestraft wordt, doordat je 0.1 euro verliest.",(0.1 euro verloren),eerste,1,plusmin,logs\sub-01\stims_session-plusmin.csv,logs\sub-01\trials_phase-learning_session-plusmin.csv,learning,80_vs_20,logs\sub-01\id-1307_gender-F_age-22_rewardprob-80_session-plusmin.png,logs\sub-01\id-1373_gender-F_age-30_rewardprob-20_session-plusmin.png,f,f,,,,,,,,,,,,0,0,0,0,,,,,0,5,5,10,,,,,,,,,,,,f,1,0.9420561281731352,,,01,F,False,True,2018_Oct_17_1318,pilot_RL,119.99249366503082,
 ,VERLIES je 0.1 euro.,"gestraft wordt, doordat je 0.1 euro verliest.",(0.1 euro verloren),eerste,1,plusmin,logs\sub-01\stims_session-plusmin.csv,logs\sub-01\trials_phase-learning_session-plusmin.csv,learning,64_vs_36,logs\sub-01\id-1354_gender-F_age-23_rewardprob-36_session-plusmin.png,logs\sub-01\id-1269_gender-F_age-23_rewardprob-64_session-plusmin.png,j,j,,,,,,,,,,,,0,0,0,0,,,,,0,6,6,97,,,,,,,,,,,,j,1,0.8253426403971389,,,01,F,False,True,2018_Oct_17_1318,pilot_RL,119.99249366503082,
 ,VERLIES je 0.1 euro.,"gestraft wordt, doordat je 0.1 euro verliest.",(0.1 euro verloren),eerste,1,plusmin,logs\sub-01\stims_session-plusmin.csv,logs\sub-01\trials_phase-learning_session-plusmin.csv,learning,80_vs_20,logs\sub-01\id-1373_gender-F_age-30_rewardprob-20_session-plusmin.png,logs\sub-01\id-1307_gender-F_age-22_rewardprob-80_session-plusmin.png,f,j,,,,,,,,,,,,0,0,0,0,,,,,0,7,7,25,,,,,,,,,,,,j,0,0.6836945081013255,,,01,F,False,True,2018_Oct_17_1318,pilot_RL,119.99249366503082,
 ,VERLIES je 0.1 euro.,"gestraft wordt, doordat je 0.1 euro verliest.",(0.1 euro verloren),eerste,1,plusmin,logs\sub-01\stims_session-plusmin.csv,logs\sub-01\trials_phase-learning_session-plusmin.csv,learning,80_vs_20,logs\sub-01\id-1373_gender-F_age-30_rewardprob-20_session-plusmin.png,logs\sub-01\id-1307_gender-F_age-22_rewardprob-80_session-plusmin.png,j,j,,,,,,,,,,,,0,0,0,0,,,,,0,8,8,44,,,,,,,,,,,,j,1,0.5336939787375741,,,01,F,False,True,2018_Oct_17_1318,pilot_RL,119.99249366503082,
 ,VERLIES je 0.1 euro.,"gestraft wordt, doordat je 0.1 euro verliest.",(0.1 euro verloren),eerste,1,plusmin,logs\sub-01\stims_session-plusmin.csv,logs\sub-01\trials_phase-learning_session-plusmin.csv,learning,80_vs_20,logs\sub-01\id-1307_gender-F_age-22_rewardprob-80_session-plusmin.png,logs\sub-01\id-1373_gender-F_age-30_rewardprob-20_session-plusmin.png,f,f,,,,,,,,,,,,0,0,0,0,,,,,0,9,9,2,,,,,,,,,,,,j,0,0.8670199337066151,,,01,F,False,True,2018_Oct_17_1318,pilot_RL,119.99249366503082,
 ,VERLIES je 0.1 euro.,"gestraft wordt, doordat je 0.1 euro verliest.",(0.1 euro verloren),eerste,1,plusmin,logs\sub-01\stims_session-plusmin.csv,logs\sub-01\trials_phase-learning_session-plusmin.csv,learning,64_vs_36,logs\sub-01\id-1354_gender-F_age-23_rewardprob-36_session-plusmin.png,logs\sub-01\id-1269_gender-F_age-23_rewardprob-64_session-plusmin.png,f,j,,,,,,,,,,,,0,0,0,0,,,,,0,10,10,82,,,,,,,,,,,,j,0,0.8169815817964263,,,01,F,False,True,2018_Oct_17_1318,pilot_RL,119.99249366503082,
 ,VERLIES je 0.1 euro.,"gestraft wordt, doordat je 0.1 euro verliest.",(0.1 euro verloren),eerste,1,plusmin,logs\sub-01\stims_session-plusmin.csv,logs\sub-01\trials_phase-learning_session-plusmin.csv,learning,80_vs_20,logs\sub-01\id-1373_gender-F_age-30_rewardprob-20_session-plusmin.png,logs\sub-01\id-1307_gender-F_age-22_rewardprob-80_session-plusmin.png,j,j,,,,,,,,,,,,0,0,0,0,,,,,0,11,11,32,,,,,,,,,,,,j,1,0.675384456932079,,,01,F,False,True,2018_Oct_17_1318,pilot_RL,119.99249366503082,
 ,VERLIES je 0.1 euro.,"gestraft wordt, doordat je 0.1 euro verliest.",(0.1 euro verloren),eerste,1,plusmin,logs\sub-01\stims_session-plusmin.csv,logs\sub-01\trials_phase-learning_session-plusmin.csv,learning,64_vs_36,logs\sub-01\id-1354_gender-F_age-23_rewardprob-36_session-plusmin.png,logs\sub-01\id-1269_gender-F_age-23_rewardprob-64_session-plusmin.png,j,j,,,,,,,,,,,,0,0,0,0,,,,,0,12,12,91,,,,,,,,,,,,f,0,0.40035718079889193,,,01,F,False,True,2018_Oct_17_1318,pilot_RL,119.99249366503082,
 ,VERLIES je 0.1 euro.,"gestraft wordt, doordat je 0.1 euro verliest.",(0.1 euro verloren),eerste,1,plusmin,logs\sub-01\stims_session-plusmin.csv,logs\sub-01\trials_phase-learning_session-plusmin.csv,learning,64_vs_36,logs\sub-01\id-1354_gender-F_age-23_rewardprob-36_session-plusmin.png,logs\sub-01\id-1269_gender-F_age-23_rewardprob-64_session-plusmin.png,j,j,,,,,,,,,,,,0,0,0,0,,,,,0,13,13,88,,,,,,,,,,,,j,1,0.742492675257381,,,01,F,False,True,2018_Oct_17_1318,pilot_RL,119.99249366503082,
 ,VERLIES je 0.1 euro.,"gestraft wordt, doordat je 0.1 euro verliest.",(0.1 euro verloren),eerste,1,plusmin,logs\sub-01\stims_session-plusmin.csv,logs\sub-01\trials_phase-learning_session-plusmin.csv,learning,64_vs_36,logs\sub-01\id-1269_gender-F_age-23_rewardprob-64_session-plusmin.png,logs\sub-01\id-1354_gender-F_age-23_rewardprob-36_session-plusmin.png,f,f,,,,,,,,,,,,0,0,0,0,,,,,0,14,14,60,,,,,,,,,,,,f,1,0.8170675567234866,,,01,F,False,True,2018_Oct_17_1318,pilot_RL,119.99249366503082,
 ,VERLIES je 0.1 euro.,"gestraft wordt, doordat je 0.1 euro verliest.",(0.1 euro verloren),eerste,1,plusmin,logs\sub-01\stims_session-plusmin.csv,logs\sub-01\trials_phase-learning_session-plusmin.csv,learning,64_vs_36,logs\sub-01\id-1269_gender-F_age-23_rewardprob-64_session-plusmin.png,logs\sub-01\id-1354_gender-F_age-23_rewardprob-36_session-plusmin.png,j,f,,,,,,,,,,,,0,0,0,0,,,,,0,15,15,68,,,,,,,,,,,,f,0,0.7253948990837671,,,01,F,False,True,2018_Oct_17_1318,pilot_RL,119.99249366503082,
 ,VERLIES je 0.1 euro.,"gestraft wordt, doordat je 0.1 euro verliest.",(0.1 euro verloren),eerste,1,plusmin,logs\sub-01\stims_session-plusmin.csv,logs\sub-01\trials_phase-learning_session-plusmin.csv,learning,64_vs_36,logs\sub-01\id-1269_gender-F_age-23_rewardprob-64_session-plusmin.png,logs\sub-01\id-1354_gender-F_age-23_rewardprob-36_session-plusmin.png,j,f,,,,,,,,,,,,0,0,0,0,,,,,0,16,16,67,,,,,,,,,,,,f,0,0.9587195386411622,,,01,F,False,True,2018_Oct_17_1318,pilot_RL,119.99249366503082,
 ,VERLIES je 0.1 euro.,"gestraft wordt, doordat je 0.1 euro verliest.",(0.1 euro verloren),eerste,1,plusmin,logs\sub-01\stims_session-plusmin.csv,logs\sub-01\trials_phase-learning_session-plusmin.csv,learning,80_vs_20,logs\sub-01\id-1307_gender-F_age-22_rewardprob-80_session-plusmin.png,logs\sub-01\id-1373_gender-F_age-30_rewardprob-20_session-plusmin.png,j,f,,,,,,,,,,,,0,0,0,0,,,,,0,17,17,23,,,,,,,,,,,,f,0,0.7587461010552943,,,01,F,False,True,2018_Oct_17_1318,pilot_RL,119.99249366503082,
 ,VERLIES je 0.1 euro.,"gestraft wordt, doordat je 0.1 euro verliest.",(0.1 euro verloren),eerste,1,plusmin,logs\sub-01\stims_session-plusmin.csv,logs\sub-01\trials_phase-learning_session-plusmin.csv,learning,80_vs_20,logs\sub-01\id-1373_gender-F_age-30_rewardprob-20_session-plusmin.png,logs\sub-01\id-1307_gender-F_age-22_rewardprob-80_session-plusmin.png,j,j,,,,,,,,,,,,0,0,0,0,,,,,0,18,18,35,,,,,,,,,,,,j,1,0.8587519075372256,,,01,F,False,True,2018_Oct_17_1318,pilot_RL,119.99249366503082,
 ,VERLIES je 0.1 euro.,"gestraft wordt, doordat je 0.1 euro verliest.",(0.1 euro verloren),eerste,1,plusmin,logs\sub-01\stims_session-plusmin.csv,logs\sub-01\trials_phase-learning_session-plusmin.csv,learning,64_vs_36,logs\sub-01\id-1354_gender-F_age-23_rewardprob-36_session-plusmin.png,logs\sub-01\id-1269_gender-F_age-23_rewardprob-64_session-plusmin.png,f,j,,,,,,,,,,,,0,0,0,0,,,,,0,19,19,79,,,,,,,,,,,,f,1,0.6587059687590227,,,01,F,False,True,2018_Oct_17_1318,pilot_RL,119.99249366503082,
 ,VERLIES je 0.1 euro.,"gestraft wordt, doordat je 0.1 euro verliest.",(0.1 euro verloren),eerste,1,plusmin,logs\sub-01\stims_session-plusmin.csv,logs\sub-01\trials_phase-learning_session-plusmin.csv,learning,80_vs_20,logs\sub-01\id-1373_gender-F_age-30_rewardprob-20_session-plusmin.png,logs\sub-01\id-1307_gender-F_age-22_rewardprob-80_session-plusmin.png,j,j,,,,,,,,,,,,0,0,0,0,,,,,0,20,20,45,,,,,,,,,,,,j,1,0.6754245571792126,,,01,F,False,True,2018_Oct_17_1318,pilot_RL,119.99249366503082,
 ,VERLIES je 0.1 euro.,"gestraft wordt, doordat je 0.1 euro verliest.",(0.1 euro verloren),eerste,1,plusmin,logs\sub-01\stims_session-plusmin.csv,logs\sub-01\trials_phase-learning_session-plusmin.csv,learning,80_vs_20,logs\sub-01\id-1373_gender-F_age-30_rewardprob-20_session-plusmin.png,logs\sub-01\id-1307_gender-F_age-22_rewardprob-80_session-plusmin.png,j,j,,,,,,,,,,,,0,0,0,0,,,,,0,21,21,48,,,,,,,,,,,,j,1,0.7754034163663164,,,01,F,False,True,2018_Oct_17_1318,pilot_RL,119.99249366503082,
 ,VERLIES je 0.1 euro.,"gestraft wordt, doordat je 0.1 euro verliest.",(0.1 euro verloren),eerste,1,plusmin,logs\sub-01\stims_session-plusmin.csv,logs\sub-01\trials_phase-learning_session-plusmin.csv,learning,80_vs_20,logs\sub-01\id-1307_gender-F_age-22_rewardprob-80_session-plusmin.png,logs\sub-01\id-1373_gender-F_age-30_rewardprob-20_session-plusmin.png,f,f,,,,,,,,,,,,0,0,0,0,,,,,0,22,22,16,,,,,,,,,,,,f,1,0.8920463276444934,,,01,F,False,True,2018_Oct_17_1318,pilot_RL,119.99249366503082,
 ,VERLIES je 0.1 euro.,"gestraft wordt, doordat je 0.1 euro verliest.",(0.1 euro verloren),eerste,1,plusmin,logs\sub-01\stims_session-plusmin.csv,logs\sub-01\trials_phase-learning_session-plusmin.csv,learning,64_vs_36,logs\sub-01\id-1269_gender-F_age-23_rewardprob-64_session-plusmin.png,logs\sub-01\id-1354_gender-F_age-23_rewardprob-36_session-plusmin.png,f,f,,,,,,,,,,,,0,0,0,0,,,,,0,23,23,54,,,,,,,,,,,,j,0,0.6336503818165511,,,01,F,False,True,2018_Oct_17_1318,pilot_RL,119.99249366503082,
 ,VERLIES je 0.1 euro.,"gestraft wordt, doordat je 0.1 euro verliest.",(0.1 euro verloren),eerste,1,plusmin,logs\sub-01\stims_session-plusmin.csv,logs\sub-01\trials_phase-learning_session-plusmin.csv,learning,80_vs_20,logs\sub-01\id-1373_gender-F_age-30_rewardprob-20_session-plusmin.png,logs\sub-01\id-1307_gender-F_age-22_rewardprob-80_session-plusmin.png,f,j,,,,,,,,,,,,0,0,0,0,,,,,0,24,24,29,,,,,,,,,,,,j,0,0.8753829170600511,,,01,F,False,True,2018_Oct_17_1318,pilot_RL,119.99249366503082,
 ,VERLIES je 0.1 euro.,"gestraft wordt, doordat je 0.1 euro verliest.",(0.1 euro verloren),eerste,1,plusmin,logs\sub-01\stims_session-plusmin.csv,logs\sub-01\trials_phase-learning_session-plusmin.csv,learning,80_vs_20,logs\sub-01\id-1373_gender-F_age-30_rewardprob-20_session-plusmin.png,logs\sub-01\id-1307_gender-F_age-22_rewardprob-80_session-plusmin.png,j,j,,,,,,,,,,,,0,0,0,0,,,,,0,25,25,41,,,,,,,,,,,,j,1,0.6754402764490806,,,01,F,False,True,2018_Oct_17_1318,pilot_RL,119.99249366503082,
 ,VERLIES je 0.1 euro.,"gestraft wordt, doordat je 0.1 euro verliest.",(0.1 euro verloren),eerste,1,plusmin,logs\sub-01\stims_session-plusmin.csv,logs\sub-01\trials_phase-learning_session-plusmin.csv,learning,64_vs_36,logs\sub-01\id-1269_gender-F_age-23_rewardprob-64_session-plusmin.png,logs\sub-01\id-1354_gender-F_age-23_rewardprob-36_session-plusmin.png,f,f,,,,,,,,,,,,0,0,0,0,,,,,0,26,26,51,,,,,,,,,,,,j,0,0.7170155547210015,,,01,F,False,True,2018_Oct_17_1318,pilot_RL,119.99249366503082,
 ,VERLIES je 0.1 euro.,"gestraft wordt, doordat je 0.1 euro verliest.",(0.1 euro verloren),eerste,1,plusmin,logs\sub-01\stims_session-plusmin.csv,logs\sub-01\trials_phase-learning_session-plusmin.csv,learning,64_vs_36,logs\sub-01\id-1354_gender-F_age-23_rewardprob-36_session-plusmin.png,logs\sub-01\id-1269_gender-F_age-23_rewardprob-64_session-plusmin.png,j,j,,,,,,,,,,,,0,0,0,0,,,,,0,27,27,93,,,,,,,,,,,,f,0,0.7087597190984525,,,01,F,False,True,2018_Oct_17_1318,pilot_RL,119.99249366503082,
 ,VERLIES je 0.1 euro.,"gestraft wordt, doordat je 0.1 euro verliest.",(0.1 euro verloren),eerste,1,plusmin,logs\sub-01\stims_session-plusmin.csv,logs\sub-01\trials_phase-learning_session-plusmin.csv,learning,64_vs_36,logs\sub-01\id-1269_gender-F_age-23_rewardprob-64_session-plusmin.png,logs\sub-01\id-1354_gender-F_age-23_rewardprob-36_session-plusmin.png,j,f,,,,,,,,,,,,0,0,0,0,,,,,0,28,28,71,,,,,,,,,,,,f,0,0.8087048940360546,,,01,F,False,True,2018_Oct_17_1318,pilot_RL,119.99249366503082,
 ,VERLIES je 0.1 euro.,"gestraft wordt, doordat je 0.1 euro verliest.",(0.1 euro verloren),eerste,1,plusmin,logs\sub-01\stims_session-plusmin.csv,logs\sub-01\trials_phase-learning_session-plusmin.csv,learning,80_vs_20,logs\sub-01\id-1307_gender-F_age-22_rewardprob-80_session-plusmin.png,logs\sub-01\id-1373_gender-F_age-30_rewardprob-20_session-plusmin.png,f,f,,,,,,,,,,,,0,0,0,0,,,,,0,29,29,9,,,,,,,,,,,,f,1,0.8753527617082,,,01,F,False,True,2018_Oct_17_1318,pilot_RL,119.99249366503082,
 ,VERLIES je 0.1 euro.,"gestraft wordt, doordat je 0.1 euro verliest.",(0.1 euro verloren),eerste,1,plusmin,logs\sub-01\stims_session-plusmin.csv,logs\sub-01\trials_phase-learning_session-plusmin.csv,learning,80_vs_20,logs\sub-01\id-1307_gender-F_age-22_rewardprob-80_session-plusmin.png,logs\sub-01\id-1373_gender-F_age-30_rewardprob-20_session-plusmin.png,j,f,,,,,,,,,,,,0,0,0,0,,,,,0,30,30,21,,,,,,,,,,,,f,0,0.5670114965760149,,,01,F,False,True,2018_Oct_17_1318,pilot_RL,119.99249366503082,
 ,VERLIES je 0.1 euro.,"gestraft wordt, doordat je 0.1 euro verliest.",(0.1 euro verloren),eerste,1,plusmin,logs\sub-01\stims_session-plusmin.csv,logs\sub-01\trials_phase-learning_session-plusmin.csv,learning,80_vs_20,logs\sub-01\id-1307_gender-F_age-22_rewardprob-80_session-plusmin.png,logs\sub-01\id-1373_gender-F_age-30_rewardprob-20_session-plusmin.png,f,f,,,,,,,,,,,,0,0,0,0,,,,,0,31,31,5,,,,,,,,,,,,f,1,0.4920436328975484,,,01,F,False,True,2018_Oct_17_1318,pilot_RL,119.99249366503082,
 ,VERLIES je 0.1 euro.,"gestraft wordt, doordat je 0.1 euro verliest.",(0.1 euro verloren),eerste,1,plusmin,logs\sub-01\stims_session-plusmin.csv,logs\sub-01\trials_phase-learning_session-plusmin.csv,learning,80_vs_20,logs\sub-01\id-1373_gender-F_age-30_rewardprob-20_session-plusmin.png,logs\sub-01\id-1307_gender-F_age-22_rewardprob-80_session-plusmin.png,f,j,,,,,,,,,,,,0,0,0,0,,,,,0,32,32,27,,,,,,,,,,,,j,0,1.0337339185643941,,,01,F,False,True,2018_Oct_17_1318,pilot_RL,119.99249366503082,
 ,VERLIES je 0.1 euro.,"gestraft wordt, doordat je 0.1 euro verliest.",(0.1 euro verloren),eerste,1,plusmin,logs\sub-01\stims_session-plusmin.csv,logs\sub-01\trials_phase-learning_session-plusmin.csv,learning,64_vs_36,logs\sub-01\id-1354_gender-F_age-23_rewardprob-36_session-plusmin.png,logs\sub-01\id-1269_gender-F_age-23_rewardprob-64_session-plusmin.png,f,j,,,,,,,,,,,,0,0,0,0,,,,,0,33,33,77,,,,,,,,,,,,j,0,0.9837289301212877,,,01,F,False,True,2018_Oct_17_1318,pilot_RL,119.99249366503082,
 ,VERLIES je 0.1 euro.,"gestraft wordt, doordat je 0.1 euro verliest.",(0.1 euro verloren),eerste,1,plusmin,logs\sub-01\stims_session-plusmin.csv,logs\sub-01\trials_phase-learning_session-plusmin.csv,learning,80_vs_20,logs\sub-01\id-1373_gender-F_age-30_rewardprob-20_session-plusmin.png,logs\sub-01\id-1307_gender-F_age-22_rewardprob-80_session-plusmin.png,j,j,,,,,,,,,,,,0,0,0,0,,,,,0,34,34,33,,,,,,,,,,,,j,1,0.7670439616777003,,,01,F,False,True,2018_Oct_17_1318,pilot_RL,119.99249366503082,
 ,VERLIES je 0.1 euro.,"gestraft wordt, doordat je 0.1 euro verliest.",(0.1 euro verloren),eerste,1,plusmin,logs\sub-01\stims_session-plusmin.csv,logs\sub-01\trials_phase-learning_session-plusmin.csv,learning,64_vs_36,logs\sub-01\id-1269_gender-F_age-23_rewardprob-64_session-plusmin.png,logs\sub-01\id-1354_gender-F_age-23_rewardprob-36_session-plusmin.png,f,f,,,,,,,,,,,,0,0,0,0,,,,,0,35,35,61,,,,,,,,,,,,f,1,0.7586591637809761,,,01,F,False,True,2018_Oct_17_1318,pilot_RL,119.99249366503082,
 ,VERLIES je 0.1 euro.,"gestraft wordt, doordat je 0.1 euro verliest.",(0.1 euro verloren),eerste,1,plusmin,logs\sub-01\stims_session-plusmin.csv,logs\sub-01\trials_phase-learning_session-plusmin.csv,learning,80_vs_20,logs\sub-01\id-1373_gender-F_age-30_rewardprob-20_session-plusmin.png,logs\sub-01\id-1307_gender-F_age-22_rewardprob-80_session-plusmin.png,j,j,,,,,,,,,,,,0,0,0,0,,,,,0,36,36,36,,,,,,,,,,,,j,1,0.4252979206503369,,,01,F,False,True,2018_Oct_17_1318,pilot_RL,119.99249366503082,
 ,VERLIES je 0.1 euro.,"gestraft wordt, doordat je 0.1 euro verliest.",(0.1 euro verloren),eerste,1,plusmin,logs\sub-01\stims_session-plusmin.csv,logs\sub-01\trials_phase-learning_session-plusmin.csv,learning,80_vs_20,logs\sub-01\id-1373_gender-F_age-30_rewardprob-20_session-plusmin.png,logs\sub-01\id-1307_gender-F_age-22_rewardprob-80_session-plusmin.png,j,j,,,,,,,,,,,,0,0,0,0,,,,,0,37,37,30,,,,,,,,,,,,j,1,0.7841552116442472,,,01,F,False,True,2018_Oct_17_1318,pilot_RL,119.99249366503082,
 ,VERLIES je 0.1 euro.,"gestraft wordt, doordat je 0.1 euro verliest.",(0.1 euro verloren),eerste,1,plusmin,logs\sub-01\stims_session-plusmin.csv,logs\sub-01\trials_phase-learning_session-plusmin.csv,learning,64_vs_36,logs\sub-01\id-1354_gender-F_age-23_rewardprob-36_session-plusmin.png,logs\sub-01\id-1269_gender-F_age-23_rewardprob-64_session-plusmin.png,f,j,,,,,,,,,,,,0,0,0,0,,,,,0,38,38,75,,,,,,,,,,,,j,0,0.875383558741305,,,01,F,False,True,2018_Oct_17_1318,pilot_RL,119.99249366503082,
 ,VERLIES je 0.1 euro.,"gestraft wordt, doordat je 0.1 euro verliest.",(0.1 euro verloren),eerste,1,plusmin,logs\sub-01\stims_session-plusmin.csv,logs\sub-01\trials_phase-learning_session-plusmin.csv,learning,80_vs_20,logs\sub-01\id-1373_gender-F_age-30_rewardprob-20_session-plusmin.png,logs\sub-01\id-1307_gender-F_age-22_rewardprob-80_session-plusmin.png,j,j,,,,,,,,,,,,0,0,0,0,,,,,0,39,39,47,,,,,,,,,,,,j,1,0.6337065221159719,,,01,F,False,True,2018_Oct_17_1318,pilot_RL,119.99249366503082,
 ,VERLIES je 0.1 euro.,"gestraft wordt, doordat je 0.1 euro verliest.",(0.1 euro verloren),eerste,1,plusmin,logs\sub-01\stims_session-plusmin.csv,logs\sub-01\trials_phase-learning_session-plusmin.csv,learning,80_vs_20,logs\sub-01\id-1307_gender-F_age-22_rewardprob-80_session-plusmin.png,logs\sub-01\id-1373_gender-F_age-30_rewardprob-20_session-plusmin.png,f,f,,,,,,,,,,,,0,0,0,0,,,,,0,40,40,8,,,,,,,,,,,,f,1,0.8837808679672889,,,01,F,False,True,2018_Oct_17_1318,pilot_RL,119.99249366503082,
 ,VERLIES je 0.1 euro.,"gestraft wordt, doordat je 0.1 euro verliest.",(0.1 euro verloren),eerste,1,plusmin,logs\sub-01\stims_session-plusmin.csv,logs\sub-01\trials_phase-learning_session-plusmin.csv,learning,64_vs_36,logs\sub-01\id-1354_gender-F_age-23_rewardprob-36_session-plusmin.png,logs\sub-01\id-1269_gender-F_age-23_rewardprob-64_session-plusmin.png,j,j,,,,,,,,,,,,0,0,0,0,,,,,0,41,41,95,,,,,,,,,,,,f,0,0.9753601722186431,,,01,F,False,True,2018_Oct_17_1318,pilot_RL,119.99249366503082,
 ,VERLIES je 0.1 euro.,"gestraft wordt, doordat je 0.1 euro verliest.",(0.1 euro verloren),eerste,1,plusmin,logs\sub-01\stims_session-plusmin.csv,logs\sub-01\trials_phase-learning_session-plusmin.csv,learning,64_vs_36,logs\sub-01\id-1269_gender-F_age-23_rewardprob-64_session-plusmin.png,logs\sub-01\id-1354_gender-F_age-23_rewardprob-36_session-plusmin.png,f,f,,,,,,,,,,,,0,0,0,0,,,,,0,42,42,50,,,,,,,,,,,,j,0,0.9087219286593609,,,01,F,False,True,2018_Oct_17_1318,pilot_RL,119.99249366503082,
 ,VERLIES je 0.1 euro.,"gestraft wordt, doordat je 0.1 euro verliest.",(0.1 euro verloren),eerste,1,plusmin,logs\sub-01\stims_session-plusmin.csv,logs\sub-01\trials_phase-learning_session-plusmin.csv,learning,80_vs_20,logs\sub-01\id-1307_gender-F_age-22_rewardprob-80_session-plusmin.png,logs\sub-01\id-1373_gender-F_age-30_rewardprob-20_session-plusmin.png,f,f,,,,,,,,,,,,0,0,0,0,,,,,0,43,43,4,,,,,,,,,,,,f,1,0.7670924027916044,,,01,F,False,True,2018_Oct_17_1318,pilot_RL,119.99249366503082,
 ,VERLIES je 0.1 euro.,"gestraft wordt, doordat je 0.1 euro verliest.",(0.1 euro verloren),eerste,1,plusmin,logs\sub-01\stims_session-plusmin.csv,logs\sub-01\trials_phase-learning_session-plusmin.csv,learning,64_vs_36,logs\sub-01\id-1354_gender-F_age-23_rewardprob-36_session-plusmin.png,logs\sub-01\id-1269_gender-F_age-23_rewardprob-64_session-plusmin.png,f,j,,,,,,,,,,,,0,0,0,0,,,,,0,44,44,80,,,,,,,,,,,,f,1,0.7253281722660176,,,01,F,False,True,2018_Oct_17_1318,pilot_RL,119.99249366503082,
 ,VERLIES je 0.1 euro.,"gestraft wordt, doordat je 0.1 euro verliest.",(0.1 euro verloren),eerste,1,plusmin,logs\sub-01\stims_session-plusmin.csv,logs\sub-01\trials_phase-learning_session-plusmin.csv,learning,64_vs_36,logs\sub-01\id-1269_gender-F_age-23_rewardprob-64_session-plusmin.png,logs\sub-01\id-1354_gender-F_age-23_rewardprob-36_session-plusmin.png,f,f,,,,,,,,,,,,0,0,0,0,,,,,0,45,45,56,,,,,,,,,,,,j,0,0.6920924589503556,,,01,F,False,True,2018_Oct_17_1318,pilot_RL,119.99249366503082,
 ,VERLIES je 0.1 euro.,"gestraft wordt, doordat je 0.1 euro verliest.",(0.1 euro verloren),eerste,1,plusmin,logs\sub-01\stims_session-plusmin.csv,logs\sub-01\trials_phase-learning_session-plusmin.csv,learning,80_vs_20,logs\sub-01\id-1307_gender-F_age-22_rewardprob-80_session-plusmin.png,logs\sub-01\id-1373_gender-F_age-30_rewardprob-20_session-plusmin.png,j,f,,,,,,,,,,,,0,0,0,0,,,,,0,46,46,24,,,,,,,,,,,,f,0,0.8501537763513625,,,01,F,False,True,2018_Oct_17_1318,pilot_RL,119.99249366503082,
 ,VERLIES je 0.1 euro.,"gestraft wordt, doordat je 0.1 euro verliest.",(0.1 euro verloren),eerste,1,plusmin,logs\sub-01\stims_session-plusmin.csv,logs\sub-01\trials_phase-learning_session-plusmin.csv,learning,64_vs_36,logs\sub-01\id-1269_gender-F_age-23_rewardprob-64_session-plusmin.png,logs\sub-01\id-1354_gender-F_age-23_rewardprob-36_session-plusmin.png,f,f,,,,,,,,,,,,0,0,0,0,,,,,0,47,47,63,,,,,,,,,,,,f,1,0.8753460248699412,,,01,F,False,True,2018_Oct_17_1318,pilot_RL,119.99249366503082,
 ,VERLIES je 0.1 euro.,"gestraft wordt, doordat je 0.1 euro verliest.",(0.1 euro verloren),eerste,1,plusmin,logs\sub-01\stims_session-plusmin.csv,logs\sub-01\trials_phase-learning_session-plusmin.csv,learning,80_vs_20,logs\sub-01\id-1307_gender-F_age-22_rewardprob-80_session-plusmin.png,logs\sub-01\id-1373_gender-F_age-30_rewardprob-20_session-plusmin.png,f,f,,,,,,,,,,,,0,0,0,0,,,,,0,48,48,3,,,,,,,,,,,,f,1,0.4253312840592116,,,01,F,False,True,2018_Oct_17_1318,pilot_RL,119.99249366503082,
 ,VERLIES je 0.1 euro.,"gestraft wordt, doordat je 0.1 euro verliest.",(0.1 euro verloren),eerste,1,plusmin,logs\sub-01\stims_session-plusmin.csv,logs\sub-01\trials_phase-learning_session-plusmin.csv,learning,64_vs_36,logs\sub-01\id-1269_gender-F_age-23_rewardprob-64_session-plusmin.png,logs\sub-01\id-1354_gender-F_age-23_rewardprob-36_session-plusmin.png,j,f,,,,,,,,,,,,0,0,0,0,,,,,0,49,49,74,,,,,,,,,,,,f,0,0.9170178645290434,,,01,F,False,True,2018_Oct_17_1318,pilot_RL,119.99249366503082,
 ,VERLIES je 0.1 euro.,"gestraft wordt, doordat je 0.1 euro verliest.",(0.1 euro verloren),eerste,1,plusmin,logs\sub-01\stims_session-plusmin.csv,logs\sub-01\trials_phase-learning_session-plusmin.csv,learning,80_vs_20,logs\sub-01\id-1373_gender-F_age-30_rewardprob-20_session-plusmin.png,logs\sub-01\id-1307_gender-F_age-22_rewardprob-80_session-plusmin.png,j,j,,,,,,,,,,,,0,0,0,0,,,,,0,50,50,49,,,,,,,,,,,,j,1,0.7253041121293791,,,01,F,False,True,2018_Oct_17_1318,pilot_RL,119.99249366503082,
 ,VERLIES je 0.1 euro.,"gestraft wordt, doordat je 0.1 euro verliest.",(0.1 euro verloren),eerste,1,plusmin,logs\sub-01\stims_session-plusmin.csv,logs\sub-01\trials_phase-learning_session-plusmin.csv,learning,64_vs_36,logs\sub-01\id-1269_gender-F_age-23_rewardprob-64_session-plusmin.png,logs\sub-01\id-1354_gender-F_age-23_rewardprob-36_session-plusmin.png,j,f,,,,,,,,,,,,0,0,0,0,,,,,0,51,51,70,,,,,,,,,,,,f,0,0.9503908810438588,,,01,F,False,True,2018_Oct_17_1318,pilot_RL,119.99249366503082,
 ,VERLIES je 0.1 euro.,"gestraft wordt, doordat je 0.1 euro verliest.",(0.1 euro verloren),eerste,1,plusmin,logs\sub-01\stims_session-plusmin.csv,logs\sub-01\trials_phase-learning_session-plusmin.csv,learning,64_vs_36,logs\sub-01\id-1269_gender-F_age-23_rewardprob-64_session-plusmin.png,logs\sub-01\id-1354_gender-F_age-23_rewardprob-36_session-plusmin.png,f,f,,,,,,,,,,,,0,0,0,0,,,,,0,52,52,55,,,,,,,,,,,,j,0,0.46702429658034816,,,01,F,False,True,2018_Oct_17_1318,pilot_RL,119.99249366503082,
 ,VERLIES je 0.1 euro.,"gestraft wordt, doordat je 0.1 euro verliest.",(0.1 euro verloren),eerste,1,plusmin,logs\sub-01\stims_session-plusmin.csv,logs\sub-01\trials_phase-learning_session-plusmin.csv,learning,80_vs_20,logs\sub-01\id-1373_gender-F_age-30_rewardprob-20_session-plusmin.png,logs\sub-01\id-1307_gender-F_age-22_rewardprob-80_session-plusmin.png,j,j,,,,,,,,,,,,0,0,0,0,,,,,0,53,53,34,,,,,,,,,,,,j,1,0.6337382814963348,,,01,F,False,True,2018_Oct_17_1318,pilot_RL,119.99249366503082,
 ,VERLIES je 0.1 euro.,"gestraft wordt, doordat je 0.1 euro verliest.",(0.1 euro verloren),eerste,1,plusmin,logs\sub-01\stims_session-plusmin.csv,logs\sub-01\trials_phase-learning_session-plusmin.csv,learning,64_vs_36,logs\sub-01\id-1269_gender-F_age-23_rewardprob-64_session-plusmin.png,logs\sub-01\id-1354_gender-F_age-23_rewardprob-36_session-plusmin.png,f,f,,,,,,,,,,,,0,0,0,0,,,,,0,54,54,58,,,,,,,,,,,,j,0,0.5337376078241505,,,01,F,False,True,2018_Oct_17_1318,pilot_RL,119.99249366503082,
 ,VERLIES je 0.1 euro.,"gestraft wordt, doordat je 0.1 euro verliest.",(0.1 euro verloren),eerste,1,plusmin,logs\sub-01\stims_session-plusmin.csv,logs\sub-01\trials_phase-learning_session-plusmin.csv,learning,64_vs_36,logs\sub-01\id-1269_gender-F_age-23_rewardprob-64_session-plusmin.png,logs\sub-01\id-1354_gender-F_age-23_rewardprob-36_session-plusmin.png,f,f,,,,,,,,,,,,0,0,0,0,,,,,0,55,55,64,,,,,,,,,,,,j,0,0.6670298143289983,,,01,F,False,True,2018_Oct_17_1318,pilot_RL,119.99249366503082,
 ,VERLIES je 0.1 euro.,"gestraft wordt, doordat je 0.1 euro verliest.",(0.1 euro verloren),eerste,1,plusmin,logs\sub-01\stims_session-plusmin.csv,logs\sub-01\trials_phase-learning_session-plusmin.csv,learning,64_vs_36,logs\sub-01\id-1354_gender-F_age-23_rewardprob-36_session-plusmin.png,logs\sub-01\id-1269_gender-F_age-23_rewardprob-64_session-plusmin.png,j,j,,,,,,,,,,,,0,0,0,0,,,,,0,56,56,96,,,,,,,,,,,,j,1,1.0336944599985145,,,01,F,False,True,2018_Oct_17_1318,pilot_RL,119.99249366503082,
 ,VERLIES je 0.1 euro.,"gestraft wordt, doordat je 0.1 euro verliest.",(0.1 euro verloren),eerste,1,plusmin,logs\sub-01\stims_session-plusmin.csv,logs\sub-01\trials_phase-learning_session-plusmin.csv,learning,64_vs_36,logs\sub-01\id-1354_gender-F_age-23_rewardprob-36_session-plusmin.png,logs\sub-01\id-1269_gender-F_age-23_rewardprob-64_session-plusmin.png,j,j,,,,,,,,,,,,0,0,0,0,,,,,0,57,57,94,,,,,,,,,,,,j,1,0.4587601200910285,,,01,F,False,True,2018_Oct_17_1318,pilot_RL,119.99249366503082,
 ,VERLIES je 0.1 euro.,"gestraft wordt, doordat je 0.1 euro verliest.",(0.1 euro verloren),eerste,1,plusmin,logs\sub-01\stims_session-plusmin.csv,logs\sub-01\trials_phase-learning_session-plusmin.csv,learning,80_vs_20,logs\sub-01\id-1307_gender-F_age-22_rewardprob-80_session-plusmin.png,logs\sub-01\id-1373_gender-F_age-30_rewardprob-20_session-plusmin.png,f,f,,,,,,,,,,,,0,0,0,0,,,,,0,58,58,13,,,,,,,,,,,,f,1,0.5837124409154058,,,01,F,False,True,2018_Oct_17_1318,pilot_RL,119.99249366503082,
 ,VERLIES je 0.1 euro.,"gestraft wordt, doordat je 0.1 euro verliest.",(0.1 euro verloren),eerste,1,plusmin,logs\sub-01\stims_session-plusmin.csv,logs\sub-01\trials_phase-learning_session-plusmin.csv,learning,64_vs_36,logs\sub-01\id-1354_gender-F_age-23_rewardprob-36_session-plusmin.png,logs\sub-01\id-1269_gender-F_age-23_rewardprob-64_session-plusmin.png,j,j,,,,,,,,,,,,0,0,0,0,,,,,0,59,59,92,,,,,,,,,,,,j,1,0.43370228755520657,,,01,F,False,True,2018_Oct_17_1318,pilot_RL,119.99249366503082,
 ,VERLIES je 0.1 euro.,"gestraft wordt, doordat je 0.1 euro verliest.",(0.1 euro verloren),eerste,1,plusmin,logs\sub-01\stims_session-plusmin.csv,logs\sub-01\trials_phase-learning_session-plusmin.csv,learning,64_vs_36,logs\sub-01\id-1269_gender-F_age-23_rewardprob-64_session-plusmin.png,logs\sub-01\id-1354_gender-F_age-23_rewardprob-36_session-plusmin.png,f,f,,,,,,,,,,,,0,0,0,0,,,,,0,60,60,57,,,,,,,,,,,,f,1,0.6086865441757254,,,01,F,False,True,2018_Oct_17_1318,pilot_RL,119.99249366503082,
 ,VERLIES je 0.1 euro.,"gestraft wordt, doordat je 0.1 euro verliest.",(0.1 euro verloren),eerste,1,plusmin,logs\sub-01\stims_session-plusmin.csv,logs\sub-01\trials_phase-learning_session-plusmin.csv,learning,64_vs_36,logs\sub-01\id-1269_gender-F_age-23_rewardprob-64_session-plusmin.png,logs\sub-01\id-1354_gender-F_age-23_rewardprob-36_session-plusmin.png,j,f,,,,,,,,,,,,0,0,0,0,,,,,0,61,61,66,,,,,,,,,,,,f,0,0.625145603902638,,,01,F,False,True,2018_Oct_17_1318,pilot_RL,119.99249366503082,
 ,VERLIES je 0.1 euro.,"gestraft wordt, doordat je 0.1 euro verliest.",(0.1 euro verloren),eerste,1,plusmin,logs\sub-01\stims_session-plusmin.csv,logs\sub-01\trials_phase-learning_session-plusmin.csv,learning,80_vs_20,logs\sub-01\id-1307_gender-F_age-22_rewardprob-80_session-plusmin.png,logs\sub-01\id-1373_gender-F_age-30_rewardprob-20_session-plusmin.png,j,f,,,,,,,,,,,,0,0,0,0,,,,,0,62,62,22,,,,,,,,,,,,j,1,0.5253428650321439,,,01,F,False,True,2018_Oct_17_1318,pilot_RL,119.99249366503082,
 ,VERLIES je 0.1 euro.,"gestraft wordt, doordat je 0.1 euro verliest.",(0.1 euro verloren),eerste,1,plusmin,logs\sub-01\stims_session-plusmin.csv,logs\sub-01\trials_phase-learning_session-plusmin.csv,learning,64_vs_36,logs\sub-01\id-1269_gender-F_age-23_rewardprob-64_session-plusmin.png,logs\sub-01\id-1354_gender-F_age-23_rewardprob-36_session-plusmin.png,f,f,,,,,,,,,,,,0,0,0,0,,,,,0,63,63,59,,,,,,,,,,,,f,1,0.6253201201325282,,,01,F,False,True,2018_Oct_17_1318,pilot_RL,119.99249366503082,
 ,VERLIES je 0.1 euro.,"gestraft wordt, doordat je 0.1 euro verliest.",(0.1 euro verloren),eerste,1,plusmin,logs\sub-01\stims_session-plusmin.csv,logs\sub-01\trials_phase-learning_session-plusmin.csv,learning,64_vs_36,logs\sub-01\id-1354_gender-F_age-23_rewardprob-36_session-plusmin.png,logs\sub-01\id-1269_gender-F_age-23_rewardprob-64_session-plusmin.png,j,j,,,,,,,,,,,,0,0,0,0,,,,,0,64,64,99,,,,,,,,,,,,j,1,0.8087174053071067,,,01,F,False,True,2018_Oct_17_1318,pilot_RL,119.99249366503082,
 ,VERLIES je 0.1 euro.,"gestraft wordt, doordat je 0.1 euro verliest.",(0.1 euro verloren),eerste,1,plusmin,logs\sub-01\stims_session-plusmin.csv,logs\sub-01\trials_phase-learning_session-plusmin.csv,learning,80_vs_20,logs\sub-01\id-1307_gender-F_age-22_rewardprob-80_session-plusmin.png,logs\sub-01\id-1373_gender-F_age-30_rewardprob-20_session-plusmin.png,f,f,,,,,,,,,,,,0,0,0,0,,,,,0,65,65,6,,,,,,,,,,,,f,1,0.40868776326533407,,,01,F,False,True,2018_Oct_17_1318,pilot_RL,119.99249366503082,
 ,VERLIES je 0.1 euro.,"gestraft wordt, doordat je 0.1 euro verliest.",(0.1 euro verloren),eerste,1,plusmin,logs\sub-01\stims_session-plusmin.csv,logs\sub-01\trials_phase-learning_session-plusmin.csv,learning,64_vs_36,logs\sub-01\id-1269_gender-F_age-23_rewardprob-64_session-plusmin.png,logs\sub-01\id-1354_gender-F_age-23_rewardprob-36_session-plusmin.png,f,f,,,,,,,,,,,,0,0,0,0,,,,,0,66,66,52,,,,,,,,,,,,f,1,0.9004317672224715,,,01,F,False,True,2018_Oct_17_1318,pilot_RL,119.99249366503082,
 ,VERLIES je 0.1 euro.,"gestraft wordt, doordat je 0.1 euro verliest.",(0.1 euro verloren),eerste,1,plusmin,logs\sub-01\stims_session-plusmin.csv,logs\sub-01\trials_phase-learning_session-plusmin.csv,learning,80_vs_20,logs\sub-01\id-1307_gender-F_age-22_rewardprob-80_session-plusmin.png,logs\sub-01\id-1373_gender-F_age-30_rewardprob-20_session-plusmin.png,f,f,,,,,,,,,,,,0,0,0,0,,,,,0,67,67,1,,,,,,,,,,,,f,1,0.40056762675521895,,,01,F,False,True,2018_Oct_17_1318,pilot_RL,119.99249366503082,
 ,VERLIES je 0.1 euro.,"gestraft wordt, doordat je 0.1 euro verliest.",(0.1 euro verloren),eerste,1,plusmin,logs\sub-01\stims_session-plusmin.csv,logs\sub-01\trials_phase-learning_session-plusmin.csv,learning,80_vs_20,logs\sub-01\id-1373_gender-F_age-30_rewardprob-20_session-plusmin.png,logs\sub-01\id-1307_gender-F_age-22_rewardprob-80_session-plusmin.png,j,j,,,,,,,,,,,,0,0,0,0,,,,,0,68,68,43,,,,,,,,,,,,j,1,0.658695703081321,,,01,F,False,True,2018_Oct_17_1318,pilot_RL,119.99249366503082,
 ,VERLIES je 0.1 euro.,"gestraft wordt, doordat je 0.1 euro verliest.",(0.1 euro verloren),eerste,1,plusmin,logs\sub-01\stims_session-plusmin.csv,logs\sub-01\trials_phase-learning_session-plusmin.csv,learning,64_vs_36,logs\sub-01\id-1354_gender-F_age-23_rewardprob-36_session-plusmin.png,logs\sub-01\id-1269_gender-F_age-23_rewardprob-64_session-plusmin.png,j,j,,,,,,,,,,,,0,0,0,0,,,,,0,69,69,87,,,,,,,,,,,,j,1,0.7004791817162186,,,01,F,False,True,2018_Oct_17_1318,pilot_RL,119.99249366503082,
 ,VERLIES je 0.1 euro.,"gestraft wordt, doordat je 0.1 euro verliest.",(0.1 euro verloren),eerste,1,plusmin,logs\sub-01\stims_session-plusmin.csv,logs\sub-01\trials_phase-learning_session-plusmin.csv,learning,80_vs_20,logs\sub-01\id-1307_gender-F_age-22_rewardprob-80_session-plusmin.png,logs\sub-01\id-1373_gender-F_age-30_rewardprob-20_session-plusmin.png,f,f,,,,,,,,,,,,0,0,0,0,,,,,0,70,70,18,,,,,,,,,,,,f,1,0.4920311216264963,,,01,F,False,True,2018_Oct_17_1318,pilot_RL,119.99249366503082,
 ,VERLIES je 0.1 euro.,"gestraft wordt, doordat je 0.1 euro verliest.",(0.1 euro verloren),eerste,1,plusmin,logs\sub-01\stims_session-plusmin.csv,logs\sub-01\trials_phase-learning_session-plusmin.csv,learning,64_vs_36,logs\sub-01\id-1354_gender-F_age-23_rewardprob-36_session-plusmin.png,logs\sub-01\id-1269_gender-F_age-23_rewardprob-64_session-plusmin.png,f,j,,,,,,,,,,,,0,0,0,0,,,,,0,71,71,78,,,,,,,,,,,,j,0,0.6837519316468388,,,01,F,False,True,2018_Oct_17_1318,pilot_RL,119.99249366503082,
 ,VERLIES je 0.1 euro.,"gestraft wordt, doordat je 0.1 euro verliest.",(0.1 euro verloren),eerste,1,plusmin,logs\sub-01\stims_session-plusmin.csv,logs\sub-01\trials_phase-learning_session-plusmin.csv,learning,80_vs_20,logs\sub-01\id-1307_gender-F_age-22_rewardprob-80_session-plusmin.png,logs\sub-01\id-1373_gender-F_age-30_rewardprob-20_session-plusmin.png,f,f,,,,,,,,,,,,0,0,0,0,,,,,0,72,72,7,,,,,,,,,,,,f,1,0.4253421913017519,,,01,F,False,True,2018_Oct_17_1318,pilot_RL,119.99249366503082,
 ,VERLIES je 0.1 euro.,"gestraft wordt, doordat je 0.1 euro verliest.",(0.1 euro verloren),eerste,1,plusmin,logs\sub-01\stims_session-plusmin.csv,logs\sub-01\trials_phase-learning_session-plusmin.csv,learning,64_vs_36,logs\sub-01\id-1269_gender-F_age-23_rewardprob-64_session-plusmin.png,logs\sub-01\id-1354_gender-F_age-23_rewardprob-36_session-plusmin.png,f,f,,,,,,,,,,,,0,0,0,0,,,,,0,73,73,62,,,,,,,,,,,,f,1,0.6503757070749998,,,01,F,False,True,2018_Oct_17_1318,pilot_RL,119.99249366503082,
 ,VERLIES je 0.1 euro.,"gestraft wordt, doordat je 0.1 euro verliest.",(0.1 euro verloren),eerste,1,plusmin,logs\sub-01\stims_session-plusmin.csv,logs\sub-01\trials_phase-learning_session-plusmin.csv,learning,64_vs_36,logs\sub-01\id-1354_gender-F_age-23_rewardprob-36_session-plusmin.png,logs\sub-01\id-1269_gender-F_age-23_rewardprob-64_session-plusmin.png,j,j,,,,,,,,,,,,0,0,0,0,,,,,0,74,74,90,,,,,,,,,,,,j,1,0.9088168860180303,,,01,F,False,True,2018_Oct_17_1318,pilot_RL,119.99249366503082,
 ,VERLIES je 0.1 euro.,"gestraft wordt, doordat je 0.1 euro verliest.",(0.1 euro verloren),eerste,1,plusmin,logs\sub-01\stims_session-plusmin.csv,logs\sub-01\trials_phase-learning_session-plusmin.csv,learning,64_vs_36,logs\sub-01\id-1269_gender-F_age-23_rewardprob-64_session-plusmin.png,logs\sub-01\id-1354_gender-F_age-23_rewardprob-36_session-plusmin.png,j,f,,,,,,,,,,,,0,0,0,0,,,,,0,75,75,69,,,,,,,,,,,,f,0,0.7170370484236628,,,01,F,False,True,2018_Oct_17_1318,pilot_RL,119.99249366503082,
 ,VERLIES je 0.1 euro.,"gestraft wordt, doordat je 0.1 euro verliest.",(0.1 euro verloren),eerste,1,plusmin,logs\sub-01\stims_session-plusmin.csv,logs\sub-01\trials_phase-learning_session-plusmin.csv,learning,80_vs_20,logs\sub-01\id-1373_gender-F_age-30_rewardprob-20_session-plusmin.png,logs\sub-01\id-1307_gender-F_age-22_rewardprob-80_session-plusmin.png,f,j,,,,,,,,,,,,0,0,0,0,,,,,0,76,76,28,,,,,,,,,,,,j,0,0.575321868469473,,,01,F,False,True,2018_Oct_17_1318,pilot_RL,119.99249366503082,
 ,VERLIES je 0.1 euro.,"gestraft wordt, doordat je 0.1 euro verliest.",(0.1 euro verloren),eerste,1,plusmin,logs\sub-01\stims_session-plusmin.csv,logs\sub-01\trials_phase-learning_session-plusmin.csv,learning,80_vs_20,logs\sub-01\id-1307_gender-F_age-22_rewardprob-80_session-plusmin.png,logs\sub-01\id-1373_gender-F_age-30_rewardprob-20_session-plusmin.png,f,f,,,,,,,,,,,,0,0,0,0,,,,,0,77,77,14,,,,,,,,,,,,f,1,0.6336567978723906,,,01,F,False,True,2018_Oct_17_1318,pilot_RL,119.99249366503082,
 ,VERLIES je 0.1 euro.,"gestraft wordt, doordat je 0.1 euro verliest.",(0.1 euro verloren),eerste,1,plusmin,logs\sub-01\stims_session-plusmin.csv,logs\sub-01\trials_phase-learning_session-plusmin.csv,learning,64_vs_36,logs\sub-01\id-1354_gender-F_age-23_rewardprob-36_session-plusmin.png,logs\sub-01\id-1269_gender-F_age-23_rewardprob-64_session-plusmin.png,f,j,,,,,,,,,,,,0,0,0,0,,,,,0,78,78,81,,,,,,,,,,,,j,0,0.7920610524015501,,,01,F,False,True,2018_Oct_17_1318,pilot_RL,119.99249366503082,
 ,VERLIES je 0.1 euro.,"gestraft wordt, doordat je 0.1 euro verliest.",(0.1 euro verloren),eerste,1,plusmin,logs\sub-01\stims_session-plusmin.csv,logs\sub-01\trials_phase-learning_session-plusmin.csv,learning,64_vs_36,logs\sub-01\id-1269_gender-F_age-23_rewardprob-64_session-plusmin.png,logs\sub-01\id-1354_gender-F_age-23_rewardprob-36_session-plusmin.png,f,f,,,,,,,,,,,,0,0,0,0,,,,,0,79,79,65,,,,,,,,,,,,f,1,0.7670285632484592,,,01,F,False,True,2018_Oct_17_1318,pilot_RL,119.99249366503082,
 ,VERLIES je 0.1 euro.,"gestraft wordt, doordat je 0.1 euro verliest.",(0.1 euro verloren),eerste,1,plusmin,logs\sub-01\stims_session-plusmin.csv,logs\sub-01\trials_phase-learning_session-plusmin.csv,learning,80_vs_20,logs\sub-01\id-1373_gender-F_age-30_rewardprob-20_session-plusmin.png,logs\sub-01\id-1307_gender-F_age-22_rewardprob-80_session-plusmin.png,j,j,,,,,,,,,,,,0,0,0,0,,,,,0,80,80,42,,,,,,,,,,,,j,1,0.6753408279037103,,,01,F,False,True,2018_Oct_17_1318,pilot_RL,119.99249366503082,
 ,VERLIES je 0.1 euro.,"gestraft wordt, doordat je 0.1 euro verliest.",(0.1 euro verloren),eerste,1,plusmin,logs\sub-01\stims_session-plusmin.csv,logs\sub-01\trials_phase-learning_session-plusmin.csv,learning,64_vs_36,logs\sub-01\id-1354_gender-F_age-23_rewardprob-36_session-plusmin.png,logs\sub-01\id-1269_gender-F_age-23_rewardprob-64_session-plusmin.png,f,j,,,,,,,,,,,,0,0,0,0,,,,,0,81,81,83,,,,,,,,,,,,j,0,0.6670003005419858,,,01,F,False,True,2018_Oct_17_1318,pilot_RL,119.99249366503082,
 ,VERLIES je 0.1 euro.,"gestraft wordt, doordat je 0.1 euro verliest.",(0.1 euro verloren),eerste,1,plusmin,logs\sub-01\stims_session-plusmin.csv,logs\sub-01\trials_phase-learning_session-plusmin.csv,learning,80_vs_20,logs\sub-01\id-1307_gender-F_age-22_rewardprob-80_session-plusmin.png,logs\sub-01\id-1373_gender-F_age-30_rewardprob-20_session-plusmin.png,f,f,,,,,,,,,,,,0,0,0,0,,,,,0,82,82,12,,,,,,,,,,,,f,1,0.5253428649739362,,,01,F,False,True,2018_Oct_17_1318,pilot_RL,119.99249366503082,
 ,VERLIES je 0.1 euro.,"gestraft wordt, doordat je 0.1 euro verliest.",(0.1 euro verloren),eerste,1,plusmin,logs\sub-01\stims_session-plusmin.csv,logs\sub-01\trials_phase-learning_session-plusmin.csv,learning,80_vs_20,logs\sub-01\id-1307_gender-F_age-22_rewardprob-80_session-plusmin.png,logs\sub-01\id-1373_gender-F_age-30_rewardprob-20_session-plusmin.png,f,f,,,,,,,,,,,,0,0,0,0,,,,,0,83,83,19,,,,,,,,,,,,f,1,0.5419985763146542,,,01,F,False,True,2018_Oct_17_1318,pilot_RL,119.99249366503082,
 ,VERLIES je 0.1 euro.,"gestraft wordt, doordat je 0.1 euro verliest.",(0.1 euro verloren),eerste,1,plusmin,logs\sub-01\stims_session-plusmin.csv,logs\sub-01\trials_phase-learning_session-plusmin.csv,learning,80_vs_20,logs\sub-01\id-1307_gender-F_age-22_rewardprob-80_session-plusmin.png,logs\sub-01\id-1373_gender-F_age-30_rewardprob-20_session-plusmin.png,f,f,,,,,,,,,,,,0,0,0,0,,,,,0,84,84,11,,,,,,,,,,,,f,1,0.6169815176399425,,,01,F,False,True,2018_Oct_17_1318,pilot_RL,119.99249366503082,
 ,VERLIES je 0.1 euro.,"gestraft wordt, doordat je 0.1 euro verliest.",(0.1 euro verloren),eerste,1,plusmin,logs\sub-01\stims_session-plusmin.csv,logs\sub-01\trials_phase-learning_session-plusmin.csv,learning,64_vs_36,logs\sub-01\id-1354_gender-F_age-23_rewardprob-36_session-plusmin.png,logs\sub-01\id-1269_gender-F_age-23_rewardprob-64_session-plusmin.png,j,j,,,,,,,,,,,,0,0,0,0,,,,,0,85,85,86,,,,,,,,,,,,j,1,0.6503461932879873,,,01,F,False,True,2018_Oct_17_1318,pilot_RL,119.99249366503082,
 ,VERLIES je 0.1 euro.,"gestraft wordt, doordat je 0.1 euro verliest.",(0.1 euro verloren),eerste,1,plusmin,logs\sub-01\stims_session-plusmin.csv,logs\sub-01\trials_phase-learning_session-plusmin.csv,learning,64_vs_36,logs\sub-01\id-1269_gender-F_age-23_rewardprob-64_session-plusmin.png,logs\sub-01\id-1354_gender-F_age-23_rewardprob-36_session-plusmin.png,j,f,,,,,,,,,,,,0,0,0,0,,,,,0,86,86,73,,,,,,,,,,,,f,0,0.7004156629554927,,,01,F,False,True,2018_Oct_17_1318,pilot_RL,119.99249366503082,
 ,VERLIES je 0.1 euro.,"gestraft wordt, doordat je 0.1 euro verliest.",(0.1 euro verloren),eerste,1,plusmin,logs\sub-01\stims_session-plusmin.csv,logs\sub-01\trials_phase-learning_session-plusmin.csv,learning,80_vs_20,logs\sub-01\id-1373_gender-F_age-30_rewardprob-20_session-plusmin.png,logs\sub-01\id-1307_gender-F_age-22_rewardprob-80_session-plusmin.png,j,j,,,,,,,,,,,,0,0,0,0,,,,,0,87,87,40,,,,,,,,,,,,j,1,0.6336561562493443,,,01,F,False,True,2018_Oct_17_1318,pilot_RL,119.99249366503082,
 ,VERLIES je 0.1 euro.,"gestraft wordt, doordat je 0.1 euro verliest.",(0.1 euro verloren),eerste,1,plusmin,logs\sub-01\stims_session-plusmin.csv,logs\sub-01\trials_phase-learning_session-plusmin.csv,learning,80_vs_20,logs\sub-01\id-1373_gender-F_age-30_rewardprob-20_session-plusmin.png,logs\sub-01\id-1307_gender-F_age-22_rewardprob-80_session-plusmin.png,j,j,,,,,,,,,,,,0,0,0,0,,,,,0,88,88,38,,,,,,,,,,,,j,1,0.9587362203164957,,,01,F,False,True,2018_Oct_17_1318,pilot_RL,119.99249366503082,
 ,VERLIES je 0.1 euro.,"gestraft wordt, doordat je 0.1 euro verliest.",(0.1 euro verloren),eerste,1,plusmin,logs\sub-01\stims_session-plusmin.csv,logs\sub-01\trials_phase-learning_session-plusmin.csv,learning,64_vs_36,logs\sub-01\id-1269_gender-F_age-23_rewardprob-64_session-plusmin.png,logs\sub-01\id-1354_gender-F_age-23_rewardprob-36_session-plusmin.png,j,f,,,,,,,,,,,,0,0,0,0,,,,,0,89,89,72,,,,,,,,,,,,f,0,1.5421336338622496,,,01,F,False,True,2018_Oct_17_1318,pilot_RL,119.99249366503082,
 ,VERLIES je 0.1 euro.,"gestraft wordt, doordat je 0.1 euro verliest.",(0.1 euro verloren),eerste,1,plusmin,logs\sub-01\stims_session-plusmin.csv,logs\sub-01\trials_phase-learning_session-plusmin.csv,learning,80_vs_20,logs\sub-01\id-1373_gender-F_age-30_rewardprob-20_session-plusmin.png,logs\sub-01\id-1307_gender-F_age-22_rewardprob-80_session-plusmin.png,f,j,,,,,,,,,,,,0,0,0,0,,,,,0,90,90,26,,,,,,,,,,,,j,0,0.9337637211428955,,,01,F,False,True,2018_Oct_17_1318,pilot_RL,119.99249366503082,
 ,VERLIES je 0.1 euro.,"gestraft wordt, doordat je 0.1 euro verliest.",(0.1 euro verloren),eerste,1,plusmin,logs\sub-01\stims_session-plusmin.csv,logs\sub-01\trials_phase-learning_session-plusmin.csv,learning,80_vs_20,logs\sub-01\id-1307_gender-F_age-22_rewardprob-80_session-plusmin.png,logs\sub-01\id-1373_gender-F_age-30_rewardprob-20_session-plusmin.png,j,f,,,,,,,,,,,,0,0,0,0,,,,,0,91,91,20,,,,,,,,,,,,f,0,0.9170589271234348,,,01,F,False,True,2018_Oct_17_1318,pilot_RL,119.99249366503082,
 ,VERLIES je 0.1 euro.,"gestraft wordt, doordat je 0.1 euro verliest.",(0.1 euro verloren),eerste,1,plusmin,logs\sub-01\stims_session-plusmin.csv,logs\sub-01\trials_phase-learning_session-plusmin.csv,learning,80_vs_20,logs\sub-01\id-1373_gender-F_age-30_rewardprob-20_session-plusmin.png,logs\sub-01\id-1307_gender-F_age-22_rewardprob-80_session-plusmin.png,j,j,,,,,,,,,,,,0,0,0,0,,,,,0,92,92,31,,,,,,,,,,,,j,1,0.7336719076265581,,,01,F,False,True,2018_Oct_17_1318,pilot_RL,119.99249366503082,
 ,VERLIES je 0.1 euro.,"gestraft wordt, doordat je 0.1 euro verliest.",(0.1 euro verloren),eerste,1,plusmin,logs\sub-01\stims_session-plusmin.csv,logs\sub-01\trials_phase-learning_session-plusmin.csv,learning,64_vs_36,logs\sub-01\id-1354_gender-F_age-23_rewardprob-36_session-plusmin.png,logs\sub-01\id-1269_gender-F_age-23_rewardprob-64_session-plusmin.png,j,j,,,,,,,,,,,,0,0,0,0,,,,,0,93,93,84,,,,,,,,,,,,j,1,0.7504379746969789,,,01,F,False,True,2018_Oct_17_1318,pilot_RL,119.99249366503082,
 ,VERLIES je 0.1 euro.,"gestraft wordt, doordat je 0.1 euro verliest.",(0.1 euro verloren),eerste,1,plusmin,logs\sub-01\stims_session-plusmin.csv,logs\sub-01\trials_phase-learning_session-plusmin.csv,learning,80_vs_20,logs\sub-01\id-1373_gender-F_age-30_rewardprob-20_session-plusmin.png,logs\sub-01\id-1307_gender-F_age-22_rewardprob-80_session-plusmin.png,j,j,,,,,,,,,,,,0,0,0,0,,,,,0,94,94,39,,,,,,,,,,,,j,1,0.6670753682265058,,,01,F,False,True,2018_Oct_17_1318,pilot_RL,119.99249366503082,
 ,VERLIES je 0.1 euro.,"gestraft wordt, doordat je 0.1 euro verliest.",(0.1 euro verloren),eerste,1,plusmin,logs\sub-01\stims_session-plusmin.csv,logs\sub-01\trials_phase-learning_session-plusmin.csv,learning,80_vs_20,logs\sub-01\id-1307_gender-F_age-22_rewardprob-80_session-plusmin.png,logs\sub-01\id-1373_gender-F_age-30_rewardprob-20_session-plusmin.png,f,f,,,,,,,,,,,,0,0,0,0,,,,,0,95,95,0,,,,,,,,,,,,f,1,0.9920675326138735,,,01,F,False,True,2018_Oct_17_1318,pilot_RL,119.99249366503082,
 ,VERLIES je 0.1 euro.,"gestraft wordt, doordat je 0.1 euro verliest.",(0.1 euro verloren),eerste,1,plusmin,logs\sub-01\stims_session-plusmin.csv,logs\sub-01\trials_phase-learning_session-plusmin.csv,learning,80_vs_20,logs\sub-01\id-1307_gender-F_age-22_rewardprob-80_session-plusmin.png,logs\sub-01\id-1373_gender-F_age-30_rewardprob-20_session-plusmin.png,f,f,,,,,,,,,,,,0,0,0,0,,,,,0,96,96,17,,,,,,,,,,,,f,1,0.9587201802642085,,,01,F,False,True,2018_Oct_17_1318,pilot_RL,119.99249366503082,
 ,VERLIES je 0.1 euro.,"gestraft wordt, doordat je 0.1 euro verliest.",(0.1 euro verloren),eerste,1,plusmin,logs\sub-01\stims_session-plusmin.csv,logs\sub-01\trials_phase-learning_session-plusmin.csv,learning,64_vs_36,logs\sub-01\id-1269_gender-F_age-23_rewardprob-64_session-plusmin.png,logs\sub-01\id-1354_gender-F_age-23_rewardprob-36_session-plusmin.png,f,f,,,,,,,,,,,,0,0,0,0,,,,,0,97,97,53,,,,,,,,,,,,j,0,0.825396535161417,,,01,F,False,True,2018_Oct_17_1318,pilot_RL,119.99249366503082,
 ,VERLIES je 0.1 euro.,"gestraft wordt, doordat je 0.1 euro verliest.",(0.1 euro verloren),eerste,1,plusmin,logs\sub-01\stims_session-plusmin.csv,logs\sub-01\trials_phase-learning_session-plusmin.csv,learning,80_vs_20,logs\sub-01\id-1373_gender-F_age-30_rewardprob-20_session-plusmin.png,logs\sub-01\id-1307_gender-F_age-22_rewardprob-80_session-plusmin.png,j,j,,,,,,,,,,,,0,0,0,0,,,,,0,98,98,37,,,,,,,,,,,,j,1,0.942078584281262,,,01,F,False,True,2018_Oct_17_1318,pilot_RL,119.99249366503082,
 ,VERLIES je 0.1 euro.,"gestraft wordt, doordat je 0.1 euro verliest.",(0.1 euro verloren),eerste,1,plusmin,logs\sub-01\stims_session-plusmin.csv,logs\sub-01\trials_phase-learning_session-plusmin.csv,learning,64_vs_36,logs\sub-01\id-1354_gender-F_age-23_rewardprob-36_session-plusmin.png,logs\sub-01\id-1269_gender-F_age-23_rewardprob-64_session-plusmin.png,j,j,,,,,,,,,,,,0,0,0,0,,,,,0,99,99,89,,,,,,,,,,,,j,1,1.1005008037900552,,,01,F,False,True,2018_Oct_17_1318,pilot_RL,119.99249366503082,
 ,VERLIES je 0.1 euro.,"gestraft wordt, doordat je 0.1 euro verliest.",(0.1 euro verloren),eerste,1,plusmin,logs\sub-01\stims_session-plusmin.csv,logs\sub-01\trials_phase-learning_session-plusmin.csv,learning,64_vs_36,logs\sub-01\id-1354_gender-F_age-23_rewardprob-36_session-plusmin.png,logs\sub-01\id-1269_gender-F_age-23_rewardprob-64_session-plusmin.png,f,j,,,,,,,,,,,,0,0,0,0,,,,,1,0,100,83,,,,,,,,,,,,j,0,0.5920147928409278,,,01,F,False,True,2018_Oct_17_1318,pilot_RL,119.99249366503082,
 ,VERLIES je 0.1 euro.,"gestraft wordt, doordat je 0.1 euro verliest.",(0.1 euro verloren),eerste,1,plusmin,logs\sub-01\stims_session-plusmin.csv,logs\sub-01\trials_phase-learning_session-plusmin.csv,learning,80_vs_20,logs\sub-01\id-1307_gender-F_age-22_rewardprob-80_session-plusmin.png,logs\sub-01\id-1373_gender-F_age-30_rewardprob-20_session-plusmin.png,f,f,,,,,,,,,,,,0,0,0,0,,,,,1,1,101,0,,,,,,,,,,,,f,1,0.708743037423119,,,01,F,False,True,2018_Oct_17_1318,pilot_RL,119.99249366503082,
 ,VERLIES je 0.1 euro.,"gestraft wordt, doordat je 0.1 euro verliest.",(0.1 euro verloren),eerste,1,plusmin,logs\sub-01\stims_session-plusmin.csv,logs\sub-01\trials_phase-learning_session-plusmin.csv,learning,80_vs_20,logs\sub-01\id-1307_gender-F_age-22_rewardprob-80_session-plusmin.png,logs\sub-01\id-1373_gender-F_age-30_rewardprob-20_session-plusmin.png,f,f,,,,,,,,,,,,0,0,0,0,,,,,1,2,102,13,,,,,,,,,,,,f,1,0.942086925089825,,,01,F,False,True,2018_Oct_17_1318,pilot_RL,119.99249366503082,
 ,VERLIES je 0.1 euro.,"gestraft wordt, doordat je 0.1 euro verliest.",(0.1 euro verloren),eerste,1,plusmin,logs\sub-01\stims_session-plusmin.csv,logs\sub-01\trials_phase-learning_session-plusmin.csv,learning,64_vs_36,logs\sub-01\id-1269_gender-F_age-23_rewardprob-64_session-plusmin.png,logs\sub-01\id-1354_gender-F_age-23_rewardprob-36_session-plusmin.png,f,f,,,,,,,,,,,,0,0,0,0,,,,,1,3,103,64,,,,,,,,,,,,f,1,0.5587736258166842,,,01,F,False,True,2018_Oct_17_1318,pilot_RL,119.99249366503082,
 ,VERLIES je 0.1 euro.,"gestraft wordt, doordat je 0.1 euro verliest.",(0.1 euro verloren),eerste,1,plusmin,logs\sub-01\stims_session-plusmin.csv,logs\sub-01\trials_phase-learning_session-plusmin.csv,learning,64_vs_36,logs\sub-01\id-1354_gender-F_age-23_rewardprob-36_session-plusmin.png,logs\sub-01\id-1269_gender-F_age-23_rewardprob-64_session-plusmin.png,f,j,,,,,,,,,,,,0,0,0,0,,,,,1,4,104,75,,,,,,,,,,,,j,0,0.8753732930636033,,,01,F,False,True,2018_Oct_17_1318,pilot_RL,119.99249366503082,
 ,VERLIES je 0.1 euro.,"gestraft wordt, doordat je 0.1 euro verliest.",(0.1 euro verloren),eerste,1,plusmin,logs\sub-01\stims_session-plusmin.csv,logs\sub-01\trials_phase-learning_session-plusmin.csv,learning,64_vs_36,logs\sub-01\id-1269_gender-F_age-23_rewardprob-64_session-plusmin.png,logs\sub-01\id-1354_gender-F_age-23_rewardprob-36_session-plusmin.png,j,f,,,,,,,,,,,,0,0,0,0,,,,,1,5,105,70,,,,,,,,,,,,f,0,0.7920565612148494,,,01,F,False,True,2018_Oct_17_1318,pilot_RL,119.99249366503082,
 ,VERLIES je 0.1 euro.,"gestraft wordt, doordat je 0.1 euro verliest.",(0.1 euro verloren),eerste,1,plusmin,logs\sub-01\stims_session-plusmin.csv,logs\sub-01\trials_phase-learning_session-plusmin.csv,learning,80_vs_20,logs\sub-01\id-1373_gender-F_age-30_rewardprob-20_session-plusmin.png,logs\sub-01\id-1307_gender-F_age-22_rewardprob-80_session-plusmin.png,j,j,,,,,,,,,,,,0,0,0,0,,,,,1,6,106,48,,,,,,,,,,,,j,1,0.7504386163200252,,,01,F,False,True,2018_Oct_17_1318,pilot_RL,119.99249366503082,
 ,VERLIES je 0.1 euro.,"gestraft wordt, doordat je 0.1 euro verliest.",(0.1 euro verloren),eerste,1,plusmin,logs\sub-01\stims_session-plusmin.csv,logs\sub-01\trials_phase-learning_session-plusmin.csv,learning,64_vs_36,logs\sub-01\id-1354_gender-F_age-23_rewardprob-36_session-plusmin.png,logs\sub-01\id-1269_gender-F_age-23_rewardprob-64_session-plusmin.png,f,j,,,,,,,,,,,,0,0,0,0,,,,,1,7,107,78,,,,,,,,,,,,j,0,0.7587204368901439,,,01,F,False,True,2018_Oct_17_1318,pilot_RL,119.99249366503082,
 ,VERLIES je 0.1 euro.,"gestraft wordt, doordat je 0.1 euro verliest.",(0.1 euro verloren),eerste,1,plusmin,logs\sub-01\stims_session-plusmin.csv,logs\sub-01\trials_phase-learning_session-plusmin.csv,learning,64_vs_36,logs\sub-01\id-1269_gender-F_age-23_rewardprob-64_session-plusmin.png,logs\sub-01\id-1354_gender-F_age-23_rewardprob-36_session-plusmin.png,j,f,,,,,,,,,,,,0,0,0,0,,,,,1,8,108,68,,,,,,,,,,,,f,0,1.3504189191153273,,,01,F,False,True,2018_Oct_17_1318,pilot_RL,119.99249366503082,
 ,VERLIES je 0.1 euro.,"gestraft wordt, doordat je 0.1 euro verliest.",(0.1 euro verloren),eerste,1,plusmin,logs\sub-01\stims_session-plusmin.csv,logs\sub-01\trials_phase-learning_session-plusmin.csv,learning,80_vs_20,logs\sub-01\id-1373_gender-F_age-30_rewardprob-20_session-plusmin.png,logs\sub-01\id-1307_gender-F_age-22_rewardprob-80_session-plusmin.png,j,j,,,,,,,,,,,,0,0,0,0,,,,,1,9,109,47,,,,,,,,,,,,j,1,0.8837054795003496,,,01,F,False,True,2018_Oct_17_1318,pilot_RL,119.99249366503082,
 ,VERLIES je 0.1 euro.,"gestraft wordt, doordat je 0.1 euro verliest.",(0.1 euro verloren),eerste,1,plusmin,logs\sub-01\stims_session-plusmin.csv,logs\sub-01\trials_phase-learning_session-plusmin.csv,learning,64_vs_36,logs\sub-01\id-1269_gender-F_age-23_rewardprob-64_session-plusmin.png,logs\sub-01\id-1354_gender-F_age-23_rewardprob-36_session-plusmin.png,f,f,,,,,,,,,,,,0,0,0,0,,,,,1,10,110,61,,,,,,,,,,,,j,0,1.3002214495209046,,,01,F,False,True,2018_Oct_17_1318,pilot_RL,119.99249366503082,
 ,VERLIES je 0.1 euro.,"gestraft wordt, doordat je 0.1 euro verliest.",(0.1 euro verloren),eerste,1,plusmin,logs\sub-01\stims_session-plusmin.csv,logs\sub-01\trials_phase-learning_session-plusmin.csv,learning,64_vs_36,logs\sub-01\id-1354_gender-F_age-23_rewardprob-36_session-plusmin.png,logs\sub-01\id-1269_gender-F_age-23_rewardprob-64_session-plusmin.png,j,j,,,,,,,,,,,,0,0,0,0,,,,,1,11,111,84,,,,,,,,,,,,j,1,0.8670006855390966,,,01,F,False,True,2018_Oct_17_1318,pilot_RL,119.99249366503082,
 ,VERLIES je 0.1 euro.,"gestraft wordt, doordat je 0.1 euro verliest.",(0.1 euro verloren),eerste,1,plusmin,logs\sub-01\stims_session-plusmin.csv,logs\sub-01\trials_phase-learning_session-plusmin.csv,learning,64_vs_36,logs\sub-01\id-1269_gender-F_age-23_rewardprob-64_session-plusmin.png,logs\sub-01\id-1354_gender-F_age-23_rewardprob-36_session-plusmin.png,f,f,,,,,,,,,,,,0,0,0,0,,,,,1,12,112,60,,,,,,,,,,,,j,0,0.6503959176479839,,,01,F,False,True,2018_Oct_17_1318,pilot_RL,119.99249366503082,
 ,VERLIES je 0.1 euro.,"gestraft wordt, doordat je 0.1 euro verliest.",(0.1 euro verloren),eerste,1,plusmin,logs\sub-01\stims_session-plusmin.csv,logs\sub-01\trials_phase-learning_session-plusmin.csv,learning,80_vs_20,logs\sub-01\id-1307_gender-F_age-22_rewardprob-80_session-plusmin.png,logs\sub-01\id-1373_gender-F_age-30_rewardprob-20_session-plusmin.png,j,f,,,,,,,,,,,,0,0,0,0,,,,,1,13,113,21,,,,,,,,,,,,f,0,0.7837420188589022,,,01,F,False,True,2018_Oct_17_1318,pilot_RL,119.99249366503082,
 ,VERLIES je 0.1 euro.,"gestraft wordt, doordat je 0.1 euro verliest.",(0.1 euro verloren),eerste,1,plusmin,logs\sub-01\stims_session-plusmin.csv,logs\sub-01\trials_phase-learning_session-plusmin.csv,learning,80_vs_20,logs\sub-01\id-1307_gender-F_age-22_rewardprob-80_session-plusmin.png,logs\sub-01\id-1373_gender-F_age-30_rewardprob-20_session-plusmin.png,f,f,,,,,,,,,,,,0,0,0,0,,,,,1,14,114,9,,,,,,,,,,,,f,1,1.1754221511655487,,,01,F,False,True,2018_Oct_17_1318,pilot_RL,119.99249366503082,
 ,VERLIES je 0.1 euro.,"gestraft wordt, doordat je 0.1 euro verliest.",(0.1 euro verloren),eerste,1,plusmin,logs\sub-01\stims_session-plusmin.csv,logs\sub-01\trials_phase-learning_session-plusmin.csv,learning,64_vs_36,logs\sub-01\id-1269_gender-F_age-23_rewardprob-64_session-plusmin.png,logs\sub-01\id-1354_gender-F_age-23_rewardprob-36_session-plusmin.png,j,f,,,,,,,,,,,,0,0,0,0,,,,,1,15,115,67,,,,,,,,,,,,j,1,0.4503628108650446,,,01,F,False,True,2018_Oct_17_1318,pilot_RL,119.99249366503082,
 ,VERLIES je 0.1 euro.,"gestraft wordt, doordat je 0.1 euro verliest.",(0.1 euro verloren),eerste,1,plusmin,logs\sub-01\stims_session-plusmin.csv,logs\sub-01\trials_phase-learning_session-plusmin.csv,learning,64_vs_36,logs\sub-01\id-1269_gender-F_age-23_rewardprob-64_session-plusmin.png,logs\sub-01\id-1354_gender-F_age-23_rewardprob-36_session-plusmin.png,j,f,,,,,,,,,,,,0,0,0,0,,,,,1,16,116,73,,,,,,,,,,,,j,1,0.8003614795161411,,,01,F,False,True,2018_Oct_17_1318,pilot_RL,119.99249366503082,
 ,VERLIES je 0.1 euro.,"gestraft wordt, doordat je 0.1 euro verliest.",(0.1 euro verloren),eerste,1,plusmin,logs\sub-01\stims_session-plusmin.csv,logs\sub-01\trials_phase-learning_session-plusmin.csv,learning,80_vs_20,logs\sub-01\id-1373_gender-F_age-30_rewardprob-20_session-plusmin.png,logs\sub-01\id-1307_gender-F_age-22_rewardprob-80_session-plusmin.png,f,j,,,,,,,,,,,,0,0,0,0,,,,,1,17,117,28,,,,,,,,,,,,j,0,0.6419899467146024,,,01,F,False,True,2018_Oct_17_1318,pilot_RL,119.99249366503082,
 ,VERLIES je 0.1 euro.,"gestraft wordt, doordat je 0.1 euro verliest.",(0.1 euro verloren),eerste,1,plusmin,logs\sub-01\stims_session-plusmin.csv,logs\sub-01\trials_phase-learning_session-plusmin.csv,learning,80_vs_20,logs\sub-01\id-1373_gender-F_age-30_rewardprob-20_session-plusmin.png,logs\sub-01\id-1307_gender-F_age-22_rewardprob-80_session-plusmin.png,f,j,,,,,,,,,,,,0,0,0,0,,,,,1,18,118,26,,,,,,,,,,,,j,0,0.6336882364121266,,,01,F,False,True,2018_Oct_17_1318,pilot_RL,119.99249366503082,
 ,VERLIES je 0.1 euro.,"gestraft wordt, doordat je 0.1 euro verliest.",(0.1 euro verloren),eerste,1,plusmin,logs\sub-01\stims_session-plusmin.csv,logs\sub-01\trials_phase-learning_session-plusmin.csv,learning,80_vs_20,logs\sub-01\id-1307_gender-F_age-22_rewardprob-80_session-plusmin.png,logs\sub-01\id-1373_gender-F_age-30_rewardprob-20_session-plusmin.png,f,f,,,,,,,,,,,,0,0,0,0,,,,,1,19,119,1,,,,,,,,,,,,f,1,0.967060386785306,,,01,F,False,True,2018_Oct_17_1318,pilot_RL,119.99249366503082,
 ,VERLIES je 0.1 euro.,"gestraft wordt, doordat je 0.1 euro verliest.",(0.1 euro verloren),eerste,1,plusmin,logs\sub-01\stims_session-plusmin.csv,logs\sub-01\trials_phase-learning_session-plusmin.csv,learning,80_vs_20,logs\sub-01\id-1307_gender-F_age-22_rewardprob-80_session-plusmin.png,logs\sub-01\id-1373_gender-F_age-30_rewardprob-20_session-plusmin.png,j,f,,,,,,,,,,,,0,0,0,0,,,,,1,20,120,22,,,,,,,,,,,,f,0,0.8253885151352733,,,01,F,False,True,2018_Oct_17_1318,pilot_RL,119.99249366503082,
 ,VERLIES je 0.1 euro.,"gestraft wordt, doordat je 0.1 euro verliest.",(0.1 euro verloren),eerste,1,plusmin,logs\sub-01\stims_session-plusmin.csv,logs\sub-01\trials_phase-learning_session-plusmin.csv,learning,80_vs_20,logs\sub-01\id-1307_gender-F_age-22_rewardprob-80_session-plusmin.png,logs\sub-01\id-1373_gender-F_age-30_rewardprob-20_session-plusmin.png,f,f,,,,,,,,,,,,0,0,0,0,,,,,1,21,121,8,,,,,,,,,,,,j,0,1.2504307566559874,,,01,F,False,True,2018_Oct_17_1318,pilot_RL,119.99249366503082,
 ,VERLIES je 0.1 euro.,"gestraft wordt, doordat je 0.1 euro verliest.",(0.1 euro verloren),eerste,1,plusmin,logs\sub-01\stims_session-plusmin.csv,logs\sub-01\trials_phase-learning_session-plusmin.csv,learning,64_vs_36,logs\sub-01\id-1269_gender-F_age-23_rewardprob-64_session-plusmin.png,logs\sub-01\id-1354_gender-F_age-23_rewardprob-36_session-plusmin.png,f,f,,,,,,,,,,,,0,0,0,0,,,,,1,22,122,55,,,,,,,,,,,,j,0,0.95875258120941,,,01,F,False,True,2018_Oct_17_1318,pilot_RL,119.99249366503082,
 ,VERLIES je 0.1 euro.,"gestraft wordt, doordat je 0.1 euro verliest.",(0.1 euro verloren),eerste,1,plusmin,logs\sub-01\stims_session-plusmin.csv,logs\sub-01\trials_phase-learning_session-plusmin.csv,learning,80_vs_20,logs\sub-01\id-1373_gender-F_age-30_rewardprob-20_session-plusmin.png,logs\sub-01\id-1307_gender-F_age-22_rewardprob-80_session-plusmin.png,j,j,,,,,,,,,,,,0,0,0,0,,,,,1,23,123,36,,,,,,,,,,,,j,1,0.6253666364355013,,,01,F,False,True,2018_Oct_17_1318,pilot_RL,119.99249366503082,
 ,VERLIES je 0.1 euro.,"gestraft wordt, doordat je 0.1 euro verliest.",(0.1 euro verloren),eerste,1,plusmin,logs\sub-01\stims_session-plusmin.csv,logs\sub-01\trials_phase-learning_session-plusmin.csv,learning,80_vs_20,logs\sub-01\id-1373_gender-F_age-30_rewardprob-20_session-plusmin.png,logs\sub-01\id-1307_gender-F_age-22_rewardprob-80_session-plusmin.png,f,j,,,,,,,,,,,,0,0,0,0,,,,,1,24,124,27,,,,,,,,,,,,j,0,0.5336140991421416,,,01,F,False,True,2018_Oct_17_1318,pilot_RL,119.99249366503082,
 ,VERLIES je 0.1 euro.,"gestraft wordt, doordat je 0.1 euro verliest.",(0.1 euro verloren),eerste,1,plusmin,logs\sub-01\stims_session-plusmin.csv,logs\sub-01\trials_phase-learning_session-plusmin.csv,learning,80_vs_20,logs\sub-01\id-1373_gender-F_age-30_rewardprob-20_session-plusmin.png,logs\sub-01\id-1307_gender-F_age-22_rewardprob-80_session-plusmin.png,j,j,,,,,,,,,,,,0,0,0,0,,,,,1,25,125,38,,,,,,,,,,,,j,1,0.5337058484437875,,,01,F,False,True,2018_Oct_17_1318,pilot_RL,119.99249366503082,
 ,VERLIES je 0.1 euro.,"gestraft wordt, doordat je 0.1 euro verliest.",(0.1 euro verloren),eerste,1,plusmin,logs\sub-01\stims_session-plusmin.csv,logs\sub-01\trials_phase-learning_session-plusmin.csv,learning,80_vs_20,logs\sub-01\id-1373_gender-F_age-30_rewardprob-20_session-plusmin.png,logs\sub-01\id-1307_gender-F_age-22_rewardprob-80_session-plusmin.png,j,j,,,,,,,,,,,,0,0,0,0,,,,,1,26,126,37,,,,,,,,,,,,j,1,0.591945820429828,,,01,F,False,True,2018_Oct_17_1318,pilot_RL,119.99249366503082,
 ,VERLIES je 0.1 euro.,"gestraft wordt, doordat je 0.1 euro verliest.",(0.1 euro verloren),eerste,1,plusmin,logs\sub-01\stims_session-plusmin.csv,logs\sub-01\trials_phase-learning_session-plusmin.csv,learning,80_vs_20,logs\sub-01\id-1373_gender-F_age-30_rewardprob-20_session-plusmin.png,logs\sub-01\id-1307_gender-F_age-22_rewardprob-80_session-plusmin.png,j,j,,,,,,,,,,,,0,0,0,0,,,,,1,27,127,35,,,,,,,,,,,,j,1,0.5586825180798769,,,01,F,False,True,2018_Oct_17_1318,pilot_RL,119.99249366503082,
 ,VERLIES je 0.1 euro.,"gestraft wordt, doordat je 0.1 euro verliest.",(0.1 euro verloren),eerste,1,plusmin,logs\sub-01\stims_session-plusmin.csv,logs\sub-01\trials_phase-learning_session-plusmin.csv,learning,80_vs_20,logs\sub-01\id-1307_gender-F_age-22_rewardprob-80_session-plusmin.png,logs\sub-01\id-1373_gender-F_age-30_rewardprob-20_session-plusmin.png,j,f,,,,,,,,,,,,0,0,0,0,,,,,1,28,128,23,,,,,,,,,,,,f,0,0.9252223718212917,,,01,F,False,True,2018_Oct_17_1318,pilot_RL,119.99249366503082,
 ,VERLIES je 0.1 euro.,"gestraft wordt, doordat je 0.1 euro verliest.",(0.1 euro verloren),eerste,1,plusmin,logs\sub-01\stims_session-plusmin.csv,logs\sub-01\trials_phase-learning_session-plusmin.csv,learning,64_vs_36,logs\sub-01\id-1269_gender-F_age-23_rewardprob-64_session-plusmin.png,logs\sub-01\id-1354_gender-F_age-23_rewardprob-36_session-plusmin.png,f,f,,,,,,,,,,,,0,0,0,0,,,,,1,29,129,51,,,,,,,,,,,,j,0,0.7170335196424276,,,01,F,False,True,2018_Oct_17_1318,pilot_RL,119.99249366503082,
 ,VERLIES je 0.1 euro.,"gestraft wordt, doordat je 0.1 euro verliest.",(0.1 euro verloren),eerste,1,plusmin,logs\sub-01\stims_session-plusmin.csv,logs\sub-01\trials_phase-learning_session-plusmin.csv,learning,64_vs_36,logs\sub-01\id-1354_gender-F_age-23_rewardprob-36_session-plusmin.png,logs\sub-01\id-1269_gender-F_age-23_rewardprob-64_session-plusmin.png,j,j,,,,,,,,,,,,0,0,0,0,,,,,1,30,130,93,,,,,,,,,,,,f,0,0.6753299206029624,,,01,F,False,True,2018_Oct_17_1318,pilot_RL,119.99249366503082,
 ,VERLIES je 0.1 euro.,"gestraft wordt, doordat je 0.1 euro verliest.",(0.1 euro verloren),eerste,1,plusmin,logs\sub-01\stims_session-plusmin.csv,logs\sub-01\trials_phase-learning_session-plusmin.csv,learning,64_vs_36,logs\sub-01\id-1354_gender-F_age-23_rewardprob-36_session-plusmin.png,logs\sub-01\id-1269_gender-F_age-23_rewardprob-64_session-plusmin.png,f,j,,,,,,,,,,,,0,0,0,0,,,,,1,31,131,76,,,,,,,,,,,,f,1,0.5586129041621462,,,01,F,False,True,2018_Oct_17_1318,pilot_RL,119.99249366503082,
 ,VERLIES je 0.1 euro.,"gestraft wordt, doordat je 0.1 euro verliest.",(0.1 euro verloren),eerste,1,plusmin,logs\sub-01\stims_session-plusmin.csv,logs\sub-01\trials_phase-learning_session-plusmin.csv,learning,64_vs_36,logs\sub-01\id-1269_gender-F_age-23_rewardprob-64_session-plusmin.png,logs\sub-01\id-1354_gender-F_age-23_rewardprob-36_session-plusmin.png,f,f,,,,,,,,,,,,0,0,0,0,,,,,1,32,132,52,,,,,,,,,,,,j,0,0.7170309532084502,,,01,F,False,True,2018_Oct_17_1318,pilot_RL,119.99249366503082,
 ,VERLIES je 0.1 euro.,"gestraft wordt, doordat je 0.1 euro verliest.",(0.1 euro verloren),eerste,1,plusmin,logs\sub-01\stims_session-plusmin.csv,logs\sub-01\trials_phase-learning_session-plusmin.csv,learning,80_vs_20,logs\sub-01\id-1307_gender-F_age-22_rewardprob-80_session-plusmin.png,logs\sub-01\id-1373_gender-F_age-30_rewardprob-20_session-plusmin.png,f,f,,,,,,,,,,,,0,0,0,0,,,,,1,33,133,2,,,,,,,,,,,,f,1,0.6001362124807201,,,01,F,False,True,2018_Oct_17_1318,pilot_RL,119.99249366503082,
 ,VERLIES je 0.1 euro.,"gestraft wordt, doordat je 0.1 euro verliest.",(0.1 euro verloren),eerste,1,plusmin,logs\sub-01\stims_session-plusmin.csv,logs\sub-01\trials_phase-learning_session-plusmin.csv,learning,80_vs_20,logs\sub-01\id-1307_gender-F_age-22_rewardprob-80_session-plusmin.png,logs\sub-01\id-1373_gender-F_age-30_rewardprob-20_session-plusmin.png,f,f,,,,,,,,,,,,0,0,0,0,,,,,1,34,134,4,,,,,,,,,,,,f,1,0.8504056058009155,,,01,F,False,True,2018_Oct_17_1318,pilot_RL,119.99249366503082,
 ,VERLIES je 0.1 euro.,"gestraft wordt, doordat je 0.1 euro verliest.",(0.1 euro verloren),eerste,1,plusmin,logs\sub-01\stims_session-plusmin.csv,logs\sub-01\trials_phase-learning_session-plusmin.csv,learning,80_vs_20,logs\sub-01\id-1307_gender-F_age-22_rewardprob-80_session-plusmin.png,logs\sub-01\id-1373_gender-F_age-30_rewardprob-20_session-plusmin.png,f,f,,,,,,,,,,,,0,0,0,0,,,,,1,35,135,11,,,,,,,,,,,,f,1,0.5836777943186462,,,01,F,False,True,2018_Oct_17_1318,pilot_RL,119.99249366503082,
 ,VERLIES je 0.1 euro.,"gestraft wordt, doordat je 0.1 euro verliest.",(0.1 euro verloren),eerste,1,plusmin,logs\sub-01\stims_session-plusmin.csv,logs\sub-01\trials_phase-learning_session-plusmin.csv,learning,64_vs_36,logs\sub-01\id-1269_gender-F_age-23_rewardprob-64_session-plusmin.png,logs\sub-01\id-1354_gender-F_age-23_rewardprob-36_session-plusmin.png,f,f,,,,,,,,,,,,0,0,0,0,,,,,1,36,136,54,,,,,,,,,,,,j,0,0.8003727075411007,,,01,F,False,True,2018_Oct_17_1318,pilot_RL,119.99249366503082,
 ,VERLIES je 0.1 euro.,"gestraft wordt, doordat je 0.1 euro verliest.",(0.1 euro verloren),eerste,1,plusmin,logs\sub-01\stims_session-plusmin.csv,logs\sub-01\trials_phase-learning_session-plusmin.csv,learning,64_vs_36,logs\sub-01\id-1269_gender-F_age-23_rewardprob-64_session-plusmin.png,logs\sub-01\id-1354_gender-F_age-23_rewardprob-36_session-plusmin.png,j,f,,,,,,,,,,,,0,0,0,0,,,,,1,37,137,72,,,,,,,,,,,,j,1,0.5836761902901344,,,01,F,False,True,2018_Oct_17_1318,pilot_RL,119.99249366503082,
 ,VERLIES je 0.1 euro.,"gestraft wordt, doordat je 0.1 euro verliest.",(0.1 euro verloren),eerste,1,plusmin,logs\sub-01\stims_session-plusmin.csv,logs\sub-01\trials_phase-learning_session-plusmin.csv,learning,80_vs_20,logs\sub-01\id-1307_gender-F_age-22_rewardprob-80_session-plusmin.png,logs\sub-01\id-1373_gender-F_age-30_rewardprob-20_session-plusmin.png,f,f,,,,,,,,,,,,0,0,0,0,,,,,1,38,138,3,,,,,,,,,,,,f,1,0.7670696258428507,,,01,F,False,True,2018_Oct_17_1318,pilot_RL,119.99249366503082,
 ,VERLIES je 0.1 euro.,"gestraft wordt, doordat je 0.1 euro verliest.",(0.1 euro verloren),eerste,1,plusmin,logs\sub-01\stims_session-plusmin.csv,logs\sub-01\trials_phase-learning_session-plusmin.csv,learning,64_vs_36,logs\sub-01\id-1354_gender-F_age-23_rewardprob-36_session-plusmin.png,logs\sub-01\id-1269_gender-F_age-23_rewardprob-64_session-plusmin.png,j,j,,,,,,,,,,,,0,0,0,0,,,,,1,39,139,98,,,,,,,,,,,,j,1,1.8671777681447566,,,01,F,False,True,2018_Oct_17_1318,pilot_RL,119.99249366503082,
 ,VERLIES je 0.1 euro.,"gestraft wordt, doordat je 0.1 euro verliest.",(0.1 euro verloren),eerste,1,plusmin,logs\sub-01\stims_session-plusmin.csv,logs\sub-01\trials_phase-learning_session-plusmin.csv,learning,64_vs_36,logs\sub-01\id-1354_gender-F_age-23_rewardprob-36_session-plusmin.png,logs\sub-01\id-1269_gender-F_age-23_rewardprob-64_session-plusmin.png,j,j,,,,,,,,,,,,0,0,0,0,,,,,1,40,140,89,,,,,,,,,,,,f,0,0.4503865501610562,,,01,F,False,True,2018_Oct_17_1318,pilot_RL,119.99249366503082,
 ,VERLIES je 0.1 euro.,"gestraft wordt, doordat je 0.1 euro verliest.",(0.1 euro verloren),eerste,1,plusmin,logs\sub-01\stims_session-plusmin.csv,logs\sub-01\trials_phase-learning_session-plusmin.csv,learning,64_vs_36,logs\sub-01\id-1354_gender-F_age-23_rewardprob-36_session-plusmin.png,logs\sub-01\id-1269_gender-F_age-23_rewardprob-64_session-plusmin.png,j,j,,,,,,,,,,,,0,0,0,0,,,,,1,41,141,96,,,,,,,,,,,,f,0,1.0004561802488752,,,01,F,False,True,2018_Oct_17_1318,pilot_RL,119.99249366503082,
 ,VERLIES je 0.1 euro.,"gestraft wordt, doordat je 0.1 euro verliest.",(0.1 euro verloren),eerste,1,plusmin,logs\sub-01\stims_session-plusmin.csv,logs\sub-01\trials_phase-learning_session-plusmin.csv,learning,64_vs_36,logs\sub-01\id-1354_gender-F_age-23_rewardprob-36_session-plusmin.png,logs\sub-01\id-1269_gender-F_age-23_rewardprob-64_session-plusmin.png,f,j,,,,,,,,,,,,0,0,0,0,,,,,1,42,142,77,,,,,,,,,,,,j,0,0.7503773431526497,,,01,F,False,True,2018_Oct_17_1318,pilot_RL,119.99249366503082,
 ,VERLIES je 0.1 euro.,"gestraft wordt, doordat je 0.1 euro verliest.",(0.1 euro verloren),eerste,1,plusmin,logs\sub-01\stims_session-plusmin.csv,logs\sub-01\trials_phase-learning_session-plusmin.csv,learning,80_vs_20,logs\sub-01\id-1373_gender-F_age-30_rewardprob-20_session-plusmin.png,logs\sub-01\id-1307_gender-F_age-22_rewardprob-80_session-plusmin.png,j,j,,,,,,,,,,,,0,0,0,0,,,,,1,43,143,49,,,,,,,,,,,,j,1,0.7670070694875903,,,01,F,False,True,2018_Oct_17_1318,pilot_RL,119.99249366503082,
 ,VERLIES je 0.1 euro.,"gestraft wordt, doordat je 0.1 euro verliest.",(0.1 euro verloren),eerste,1,plusmin,logs\sub-01\stims_session-plusmin.csv,logs\sub-01\trials_phase-learning_session-plusmin.csv,learning,64_vs_36,logs\sub-01\id-1269_gender-F_age-23_rewardprob-64_session-plusmin.png,logs\sub-01\id-1354_gender-F_age-23_rewardprob-36_session-plusmin.png,f,f,,,,,,,,,,,,0,0,0,0,,,,,1,44,144,65,,,,,,,,,,,,j,0,0.575363251962699,,,01,F,False,True,2018_Oct_17_1318,pilot_RL,119.99249366503082,
 ,VERLIES je 0.1 euro.,"gestraft wordt, doordat je 0.1 euro verliest.",(0.1 euro verloren),eerste,1,plusmin,logs\sub-01\stims_session-plusmin.csv,logs\sub-01\trials_phase-learning_session-plusmin.csv,learning,64_vs_36,logs\sub-01\id-1354_gender-F_age-23_rewardprob-36_session-plusmin.png,logs\sub-01\id-1269_gender-F_age-23_rewardprob-64_session-plusmin.png,f,j,,,,,,,,,,,,0,0,0,0,,,,,1,45,145,81,,,,,,,,,,,,j,0,1.05870385147864,,,01,F,False,True,2018_Oct_17_1318,pilot_RL,119.99249366503082,
 ,VERLIES je 0.1 euro.,"gestraft wordt, doordat je 0.1 euro verliest.",(0.1 euro verloren),eerste,1,plusmin,logs\sub-01\stims_session-plusmin.csv,logs\sub-01\trials_phase-learning_session-plusmin.csv,learning,80_vs_20,logs\sub-01\id-1373_gender-F_age-30_rewardprob-20_session-plusmin.png,logs\sub-01\id-1307_gender-F_age-22_rewardprob-80_session-plusmin.png,j,j,,,,,,,,,,,,0,0,0,0,,,,,1,46,146,33,,,,,,,,,,,,j,1,0.8170399677474052,,,01,F,False,True,2018_Oct_17_1318,pilot_RL,119.99249366503082,
 ,VERLIES je 0.1 euro.,"gestraft wordt, doordat je 0.1 euro verliest.",(0.1 euro verloren),eerste,1,plusmin,logs\sub-01\stims_session-plusmin.csv,logs\sub-01\trials_phase-learning_session-plusmin.csv,learning,80_vs_20,logs\sub-01\id-1307_gender-F_age-22_rewardprob-80_session-plusmin.png,logs\sub-01\id-1373_gender-F_age-30_rewardprob-20_session-plusmin.png,f,f,,,,,,,,,,,,0,0,0,0,,,,,1,47,147,17,,,,,,,,,,,,f,1,1.0170390694984235,,,01,F,False,True,2018_Oct_17_1318,pilot_RL,119.99249366503082,
 ,VERLIES je 0.1 euro.,"gestraft wordt, doordat je 0.1 euro verliest.",(0.1 euro verloren),eerste,1,plusmin,logs\sub-01\stims_session-plusmin.csv,logs\sub-01\trials_phase-learning_session-plusmin.csv,learning,80_vs_20,logs\sub-01\id-1373_gender-F_age-30_rewardprob-20_session-plusmin.png,logs\sub-01\id-1307_gender-F_age-22_rewardprob-80_session-plusmin.png,j,j,,,,,,,,,,,,0,0,0,0,,,,,1,48,148,43,,,,,,,,,,,,j,1,0.8920796910533682,,,01,F,False,True,2018_Oct_17_1318,pilot_RL,119.99249366503082,
 ,VERLIES je 0.1 euro.,"gestraft wordt, doordat je 0.1 euro verliest.",(0.1 euro verloren),eerste,1,plusmin,logs\sub-01\stims_session-plusmin.csv,logs\sub-01\trials_phase-learning_session-plusmin.csv,learning,64_vs_36,logs\sub-01\id-1354_gender-F_age-23_rewardprob-36_session-plusmin.png,logs\sub-01\id-1269_gender-F_age-23_rewardprob-64_session-plusmin.png,j,j,,,,,,,,,,,,0,0,0,0,,,,,1,49,149,92,,,,,,,,,,,,f,0,0.7253580068354495,,,01,F,False,True,2018_Oct_17_1318,pilot_RL,119.99249366503082,
 ,VERLIES je 0.1 euro.,"gestraft wordt, doordat je 0.1 euro verliest.",(0.1 euro verloren),eerste,1,plusmin,logs\sub-01\stims_session-plusmin.csv,logs\sub-01\trials_phase-learning_session-plusmin.csv,learning,80_vs_20,logs\sub-01\id-1373_gender-F_age-30_rewardprob-20_session-plusmin.png,logs\sub-01\id-1307_gender-F_age-22_rewardprob-80_session-plusmin.png,j,j,,,,,,,,,,,,0,0,0,0,,,,,1,50,150,32,,,,,,,,,,,,j,1,0.7337293311720714,,,01,F,False,True,2018_Oct_17_1318,pilot_RL,119.99249366503082,
 ,VERLIES je 0.1 euro.,"gestraft wordt, doordat je 0.1 euro verliest.",(0.1 euro verloren),eerste,1,plusmin,logs\sub-01\stims_session-plusmin.csv,logs\sub-01\trials_phase-learning_session-plusmin.csv,learning,64_vs_36,logs\sub-01\id-1354_gender-F_age-23_rewardprob-36_session-plusmin.png,logs\sub-01\id-1269_gender-F_age-23_rewardprob-64_session-plusmin.png,j,j,,,,,,,,,,,,0,0,0,0,,,,,1,51,151,95,,,,,,,,,,,,j,1,0.5587117110844702,,,01,F,False,True,2018_Oct_17_1318,pilot_RL,119.99249366503082,
 ,VERLIES je 0.1 euro.,"gestraft wordt, doordat je 0.1 euro verliest.",(0.1 euro verloren),eerste,1,plusmin,logs\sub-01\stims_session-plusmin.csv,logs\sub-01\trials_phase-learning_session-plusmin.csv,learning,80_vs_20,logs\sub-01\id-1373_gender-F_age-30_rewardprob-20_session-plusmin.png,logs\sub-01\id-1307_gender-F_age-22_rewardprob-80_session-plusmin.png,j,j,,,,,,,,,,,,0,0,0,0,,,,,1,52,152,31,,,,,,,,,,,,j,1,0.7420271917944774,,,01,F,False,True,2018_Oct_17_1318,pilot_RL,119.99249366503082,
 ,VERLIES je 0.1 euro.,"gestraft wordt, doordat je 0.1 euro verliest.",(0.1 euro verloren),eerste,1,plusmin,logs\sub-01\stims_session-plusmin.csv,logs\sub-01\trials_phase-learning_session-plusmin.csv,learning,80_vs_20,logs\sub-01\id-1373_gender-F_age-30_rewardprob-20_session-plusmin.png,logs\sub-01\id-1307_gender-F_age-22_rewardprob-80_session-plusmin.png,j,j,,,,,,,,,,,,0,0,0,0,,,,,1,53,153,40,,,,,,,,,,,,j,1,0.5587059367098846,,,01,F,False,True,2018_Oct_17_1318,pilot_RL,119.99249366503082,
 ,VERLIES je 0.1 euro.,"gestraft wordt, doordat je 0.1 euro verliest.",(0.1 euro verloren),eerste,1,plusmin,logs\sub-01\stims_session-plusmin.csv,logs\sub-01\trials_phase-learning_session-plusmin.csv,learning,80_vs_20,logs\sub-01\id-1307_gender-F_age-22_rewardprob-80_session-plusmin.png,logs\sub-01\id-1373_gender-F_age-30_rewardprob-20_session-plusmin.png,f,f,,,,,,,,,,,,0,0,0,0,,,,,1,54,154,19,,,,,,,,,,,,f,1,0.7920851125963964,,,01,F,False,True,2018_Oct_17_1318,pilot_RL,119.99249366503082,
 ,VERLIES je 0.1 euro.,"gestraft wordt, doordat je 0.1 euro verliest.",(0.1 euro verloren),eerste,1,plusmin,logs\sub-01\stims_session-plusmin.csv,logs\sub-01\trials_phase-learning_session-plusmin.csv,learning,80_vs_20,logs\sub-01\id-1307_gender-F_age-22_rewardprob-80_session-plusmin.png,logs\sub-01\id-1373_gender-F_age-30_rewardprob-20_session-plusmin.png,j,f,,,,,,,,,,,,0,0,0,0,,,,,1,55,155,20,,,,,,,,,,,,f,0,0.8837228027987294,,,01,F,False,True,2018_Oct_17_1318,pilot_RL,119.99249366503082,
 ,VERLIES je 0.1 euro.,"gestraft wordt, doordat je 0.1 euro verliest.",(0.1 euro verloren),eerste,1,plusmin,logs\sub-01\stims_session-plusmin.csv,logs\sub-01\trials_phase-learning_session-plusmin.csv,learning,64_vs_36,logs\sub-01\id-1269_gender-F_age-23_rewardprob-64_session-plusmin.png,logs\sub-01\id-1354_gender-F_age-23_rewardprob-36_session-plusmin.png,f,f,,,,,,,,,,,,0,0,0,0,,,,,1,56,156,59,,,,,,,,,,,,f,1,0.9920505301561207,,,01,F,False,True,2018_Oct_17_1318,pilot_RL,119.99249366503082,
 ,VERLIES je 0.1 euro.,"gestraft wordt, doordat je 0.1 euro verliest.",(0.1 euro verloren),eerste,1,plusmin,logs\sub-01\stims_session-plusmin.csv,logs\sub-01\trials_phase-learning_session-plusmin.csv,learning,64_vs_36,logs\sub-01\id-1354_gender-F_age-23_rewardprob-36_session-plusmin.png,logs\sub-01\id-1269_gender-F_age-23_rewardprob-64_session-plusmin.png,j,j,,,,,,,,,,,,0,0,0,0,,,,,1,57,157,94,,,,,,,,,,,,j,1,0.7421102795051411,,,01,F,False,True,2018_Oct_17_1318,pilot_RL,119.99249366503082,
 ,VERLIES je 0.1 euro.,"gestraft wordt, doordat je 0.1 euro verliest.",(0.1 euro verloren),eerste,1,plusmin,logs\sub-01\stims_session-plusmin.csv,logs\sub-01\trials_phase-learning_session-plusmin.csv,learning,80_vs_20,logs\sub-01\id-1307_gender-F_age-22_rewardprob-80_session-plusmin.png,logs\sub-01\id-1373_gender-F_age-30_rewardprob-20_session-plusmin.png,f,f,,,,,,,,,,,,0,0,0,0,,,,,1,58,158,15,,,,,,,,,,,,f,1,0.6587508810334839,,,01,F,False,True,2018_Oct_17_1318,pilot_RL,119.99249366503082,
 ,VERLIES je 0.1 euro.,"gestraft wordt, doordat je 0.1 euro verliest.",(0.1 euro verloren),eerste,1,plusmin,logs\sub-01\stims_session-plusmin.csv,logs\sub-01\trials_phase-learning_session-plusmin.csv,learning,80_vs_20,logs\sub-01\id-1307_gender-F_age-22_rewardprob-80_session-plusmin.png,logs\sub-01\id-1373_gender-F_age-30_rewardprob-20_session-plusmin.png,f,f,,,,,,,,,,,,0,0,0,0,,,,,1,59,159,5,,,,,,,,,,,,f,1,0.6503263036138378,,,01,F,False,True,2018_Oct_17_1318,pilot_RL,119.99249366503082,
 ,VERLIES je 0.1 euro.,"gestraft wordt, doordat je 0.1 euro verliest.",(0.1 euro verloren),eerste,1,plusmin,logs\sub-01\stims_session-plusmin.csv,logs\sub-01\trials_phase-learning_session-plusmin.csv,learning,80_vs_20,logs\sub-01\id-1373_gender-F_age-30_rewardprob-20_session-plusmin.png,logs\sub-01\id-1307_gender-F_age-22_rewardprob-80_session-plusmin.png,f,j,,,,,,,,,,,,0,0,0,0,,,,,1,60,160,29,,,,,,,,,,,,f,1,0.9253853391855955,,,01,F,False,True,2018_Oct_17_1318,pilot_RL,119.99249366503082,
 ,VERLIES je 0.1 euro.,"gestraft wordt, doordat je 0.1 euro verliest.",(0.1 euro verloren),eerste,1,plusmin,logs\sub-01\stims_session-plusmin.csv,logs\sub-01\trials_phase-learning_session-plusmin.csv,learning,64_vs_36,logs\sub-01\id-1269_gender-F_age-23_rewardprob-64_session-plusmin.png,logs\sub-01\id-1354_gender-F_age-23_rewardprob-36_session-plusmin.png,f,f,,,,,,,,,,,,0,0,0,0,,,,,1,61,161,62,,,,,,,,,,,,f,1,0.8086994403856806,,,01,F,False,True,2018_Oct_17_1318,pilot_RL,119.99249366503082,
 ,VERLIES je 0.1 euro.,"gestraft wordt, doordat je 0.1 euro verliest.",(0.1 euro verloren),eerste,1,plusmin,logs\sub-01\stims_session-plusmin.csv,logs\sub-01\trials_phase-learning_session-plusmin.csv,learning,80_vs_20,logs\sub-01\id-1307_gender-F_age-22_rewardprob-80_session-plusmin.png,logs\sub-01\id-1373_gender-F_age-30_rewardprob-20_session-plusmin.png,f,f,,,,,,,,,,,,0,0,0,0,,,,,1,62,162,18,,,,,,,,,,,,f,1,0.5503753541852348,,,01,F,False,True,2018_Oct_17_1318,pilot_RL,119.99249366503082,
 ,VERLIES je 0.1 euro.,"gestraft wordt, doordat je 0.1 euro verliest.",(0.1 euro verloren),eerste,1,plusmin,logs\sub-01\stims_session-plusmin.csv,logs\sub-01\trials_phase-learning_session-plusmin.csv,learning,64_vs_36,logs\sub-01\id-1269_gender-F_age-23_rewardprob-64_session-plusmin.png,logs\sub-01\id-1354_gender-F_age-23_rewardprob-36_session-plusmin.png,f,f,,,,,,,,,,,,0,0,0,0,,,,,1,63,163,56,,,,,,,,,,,,f,1,1.0584962926222943,,,01,F,False,True,2018_Oct_17_1318,pilot_RL,119.99249366503082,
 ,VERLIES je 0.1 euro.,"gestraft wordt, doordat je 0.1 euro verliest.",(0.1 euro verloren),eerste,1,plusmin,logs\sub-01\stims_session-plusmin.csv,logs\sub-01\trials_phase-learning_session-plusmin.csv,learning,64_vs_36,logs\sub-01\id-1354_gender-F_age-23_rewardprob-36_session-plusmin.png,logs\sub-01\id-1269_gender-F_age-23_rewardprob-64_session-plusmin.png,j,j,,,,,,,,,,,,0,0,0,0,,,,,1,64,164,97,,,,,,,,,,,,j,1,0.8253740789950825,,,01,F,False,True,2018_Oct_17_1318,pilot_RL,119.99249366503082,
 ,VERLIES je 0.1 euro.,"gestraft wordt, doordat je 0.1 euro verliest.",(0.1 euro verloren),eerste,1,plusmin,logs\sub-01\stims_session-plusmin.csv,logs\sub-01\trials_phase-learning_session-plusmin.csv,learning,64_vs_36,logs\sub-01\id-1269_gender-F_age-23_rewardprob-64_session-plusmin.png,logs\sub-01\id-1354_gender-F_age-23_rewardprob-36_session-plusmin.png,f,f,,,,,,,,,,,,0,0,0,0,,,,,1,65,165,58,,,,,,,,,,,,f,1,0.867005176784005,,,01,F,False,True,2018_Oct_17_1318,pilot_RL,119.99249366503082,
 ,VERLIES je 0.1 euro.,"gestraft wordt, doordat je 0.1 euro verliest.",(0.1 euro verloren),eerste,1,plusmin,logs\sub-01\stims_session-plusmin.csv,logs\sub-01\trials_phase-learning_session-plusmin.csv,learning,80_vs_20,logs\sub-01\id-1373_gender-F_age-30_rewardprob-20_session-plusmin.png,logs\sub-01\id-1307_gender-F_age-22_rewardprob-80_session-plusmin.png,j,j,,,,,,,,,,,,0,0,0,0,,,,,1,66,166,30,,,,,,,,,,,,j,1,0.7003547105705366,,,01,F,False,True,2018_Oct_17_1318,pilot_RL,119.99249366503082,
 ,VERLIES je 0.1 euro.,"gestraft wordt, doordat je 0.1 euro verliest.",(0.1 euro verloren),eerste,1,plusmin,logs\sub-01\stims_session-plusmin.csv,logs\sub-01\trials_phase-learning_session-plusmin.csv,learning,64_vs_36,logs\sub-01\id-1269_gender-F_age-23_rewardprob-64_session-plusmin.png,logs\sub-01\id-1354_gender-F_age-23_rewardprob-36_session-plusmin.png,j,f,,,,,,,,,,,,0,0,0,0,,,,,1,67,167,66,,,,,,,,,,,,f,0,0.6753555848263204,,,01,F,False,True,2018_Oct_17_1318,pilot_RL,119.99249366503082,
 ,VERLIES je 0.1 euro.,"gestraft wordt, doordat je 0.1 euro verliest.",(0.1 euro verloren),eerste,1,plusmin,logs\sub-01\stims_session-plusmin.csv,logs\sub-01\trials_phase-learning_session-plusmin.csv,learning,64_vs_36,logs\sub-01\id-1269_gender-F_age-23_rewardprob-64_session-plusmin.png,logs\sub-01\id-1354_gender-F_age-23_rewardprob-36_session-plusmin.png,f,f,,,,,,,,,,,,0,0,0,0,,,,,1,68,168,53,,,,,,,,,,,,f,1,0.6670173031161539,,,01,F,False,True,2018_Oct_17_1318,pilot_RL,119.99249366503082,
 ,VERLIES je 0.1 euro.,"gestraft wordt, doordat je 0.1 euro verliest.",(0.1 euro verloren),eerste,1,plusmin,logs\sub-01\stims_session-plusmin.csv,logs\sub-01\trials_phase-learning_session-plusmin.csv,learning,64_vs_36,logs\sub-01\id-1269_gender-F_age-23_rewardprob-64_session-plusmin.png,logs\sub-01\id-1354_gender-F_age-23_rewardprob-36_session-plusmin.png,f,f,,,,,,,,,,,,0,0,0,0,,,,,1,69,169,50,,,,,,,,,,,,f,1,0.6169853672618046,,,01,F,False,True,2018_Oct_17_1318,pilot_RL,119.99249366503082,
 ,VERLIES je 0.1 euro.,"gestraft wordt, doordat je 0.1 euro verliest.",(0.1 euro verloren),eerste,1,plusmin,logs\sub-01\stims_session-plusmin.csv,logs\sub-01\trials_phase-learning_session-plusmin.csv,learning,64_vs_36,logs\sub-01\id-1354_gender-F_age-23_rewardprob-36_session-plusmin.png,logs\sub-01\id-1269_gender-F_age-23_rewardprob-64_session-plusmin.png,j,j,,,,,,,,,,,,0,0,0,0,,,,,1,70,170,99,,,,,,,,,,,,j,1,0.7420964849879965,,,01,F,False,True,2018_Oct_17_1318,pilot_RL,119.99249366503082,
 ,VERLIES je 0.1 euro.,"gestraft wordt, doordat je 0.1 euro verliest.",(0.1 euro verloren),eerste,1,plusmin,logs\sub-01\stims_session-plusmin.csv,logs\sub-01\trials_phase-learning_session-plusmin.csv,learning,80_vs_20,logs\sub-01\id-1307_gender-F_age-22_rewardprob-80_session-plusmin.png,logs\sub-01\id-1373_gender-F_age-30_rewardprob-20_session-plusmin.png,j,f,,,,,,,,,,,,0,0,0,0,,,,,1,71,171,24,,,,,,,,,,,,f,0,0.7836881241528317,,,01,F,False,True,2018_Oct_17_1318,pilot_RL,119.99249366503082,
 ,VERLIES je 0.1 euro.,"gestraft wordt, doordat je 0.1 euro verliest.",(0.1 euro verloren),eerste,1,plusmin,logs\sub-01\stims_session-plusmin.csv,logs\sub-01\trials_phase-learning_session-plusmin.csv,learning,64_vs_36,logs\sub-01\id-1354_gender-F_age-23_rewardprob-36_session-plusmin.png,logs\sub-01\id-1269_gender-F_age-23_rewardprob-64_session-plusmin.png,f,j,,,,,,,,,,,,0,0,0,0,,,,,1,72,172,82,,,,,,,,,,,,j,0,0.8836791737703606,,,01,F,False,True,2018_Oct_17_1318,pilot_RL,119.99249366503082,
 ,VERLIES je 0.1 euro.,"gestraft wordt, doordat je 0.1 euro verliest.",(0.1 euro verloren),eerste,1,plusmin,logs\sub-01\stims_session-plusmin.csv,logs\sub-01\trials_phase-learning_session-plusmin.csv,learning,80_vs_20,logs\sub-01\id-1373_gender-F_age-30_rewardprob-20_session-plusmin.png,logs\sub-01\id-1307_gender-F_age-22_rewardprob-80_session-plusmin.png,j,j,,,,,,,,,,,,0,0,0,0,,,,,1,73,173,39,,,,,,,,,,,,j,1,0.7336638875422068,,,01,F,False,True,2018_Oct_17_1318,pilot_RL,119.99249366503082,
 ,VERLIES je 0.1 euro.,"gestraft wordt, doordat je 0.1 euro verliest.",(0.1 euro verloren),eerste,1,plusmin,logs\sub-01\stims_session-plusmin.csv,logs\sub-01\trials_phase-learning_session-plusmin.csv,learning,80_vs_20,logs\sub-01\id-1373_gender-F_age-30_rewardprob-20_session-plusmin.png,logs\sub-01\id-1307_gender-F_age-22_rewardprob-80_session-plusmin.png,j,j,,,,,,,,,,,,0,0,0,0,,,,,1,74,174,41,,,,,,,,,,,,j,1,0.5586703276494518,,,01,F,False,True,2018_Oct_17_1318,pilot_RL,119.99249366503082,
 ,VERLIES je 0.1 euro.,"gestraft wordt, doordat je 0.1 euro verliest.",(0.1 euro verloren),eerste,1,plusmin,logs\sub-01\stims_session-plusmin.csv,logs\sub-01\trials_phase-learning_session-plusmin.csv,learning,80_vs_20,logs\sub-01\id-1307_gender-F_age-22_rewardprob-80_session-plusmin.png,logs\sub-01\id-1373_gender-F_age-30_rewardprob-20_session-plusmin.png,f,f,,,,,,,,,,,,0,0,0,0,,,,,1,75,175,7,,,,,,,,,,,,f,1,0.5420088419341482,,,01,F,False,True,2018_Oct_17_1318,pilot_RL,119.99249366503082,
 ,VERLIES je 0.1 euro.,"gestraft wordt, doordat je 0.1 euro verliest.",(0.1 euro verloren),eerste,1,plusmin,logs\sub-01\stims_session-plusmin.csv,logs\sub-01\trials_phase-learning_session-plusmin.csv,learning,64_vs_36,logs\sub-01\id-1354_gender-F_age-23_rewardprob-36_session-plusmin.png,logs\sub-01\id-1269_gender-F_age-23_rewardprob-64_session-plusmin.png,f,j,,,,,,,,,,,,0,0,0,0,,,,,1,76,176,79,,,,,,,,,,,,j,0,0.6087298524216749,,,01,F,False,True,2018_Oct_17_1318,pilot_RL,119.99249366503082,
 ,VERLIES je 0.1 euro.,"gestraft wordt, doordat je 0.1 euro verliest.",(0.1 euro verloren),eerste,1,plusmin,logs\sub-01\stims_session-plusmin.csv,logs\sub-01\trials_phase-learning_session-plusmin.csv,learning,80_vs_20,logs\sub-01\id-1373_gender-F_age-30_rewardprob-20_session-plusmin.png,logs\sub-01\id-1307_gender-F_age-22_rewardprob-80_session-plusmin.png,j,j,,,,,,,,,,,,0,0,0,0,,,,,1,77,177,46,,,,,,,,,,,,j,1,0.5919756549410522,,,01,F,False,True,2018_Oct_17_1318,pilot_RL,119.99249366503082,
 ,VERLIES je 0.1 euro.,"gestraft wordt, doordat je 0.1 euro verliest.",(0.1 euro verloren),eerste,1,plusmin,logs\sub-01\stims_session-plusmin.csv,logs\sub-01\trials_phase-learning_session-plusmin.csv,learning,64_vs_36,logs\sub-01\id-1269_gender-F_age-23_rewardprob-64_session-plusmin.png,logs\sub-01\id-1354_gender-F_age-23_rewardprob-36_session-plusmin.png,f,f,,,,,,,,,,,,0,0,0,0,,,,,1,78,178,57,,,,,,,,,,,,f,1,0.7503369221230969,,,01,F,False,True,2018_Oct_17_1318,pilot_RL,119.99249366503082,
 ,VERLIES je 0.1 euro.,"gestraft wordt, doordat je 0.1 euro verliest.",(0.1 euro verloren),eerste,1,plusmin,logs\sub-01\stims_session-plusmin.csv,logs\sub-01\trials_phase-learning_session-plusmin.csv,learning,64_vs_36,logs\sub-01\id-1354_gender-F_age-23_rewardprob-36_session-plusmin.png,logs\sub-01\id-1269_gender-F_age-23_rewardprob-64_session-plusmin.png,j,j,,,,,,,,,,,,0,0,0,0,,,,,1,79,179,87,,,,,,,,,,,,j,1,0.6003758514416404,,,01,F,False,True,2018_Oct_17_1318,pilot_RL,119.99249366503082,
 ,VERLIES je 0.1 euro.,"gestraft wordt, doordat je 0.1 euro verliest.",(0.1 euro verloren),eerste,1,plusmin,logs\sub-01\stims_session-plusmin.csv,logs\sub-01\trials_phase-learning_session-plusmin.csv,learning,80_vs_20,logs\sub-01\id-1373_gender-F_age-30_rewardprob-20_session-plusmin.png,logs\sub-01\id-1307_gender-F_age-22_rewardprob-80_session-plusmin.png,j,j,,,,,,,,,,,,0,0,0,0,,,,,1,80,180,45,,,,,,,,,,,,j,1,0.7337736018234864,,,01,F,False,True,2018_Oct_17_1318,pilot_RL,119.99249366503082,
 ,VERLIES je 0.1 euro.,"gestraft wordt, doordat je 0.1 euro verliest.",(0.1 euro verloren),eerste,1,plusmin,logs\sub-01\stims_session-plusmin.csv,logs\sub-01\trials_phase-learning_session-plusmin.csv,learning,64_vs_36,logs\sub-01\id-1354_gender-F_age-23_rewardprob-36_session-plusmin.png,logs\sub-01\id-1269_gender-F_age-23_rewardprob-64_session-plusmin.png,f,j,,,,,,,,,,,,0,0,0,0,,,,,1,81,181,80,,,,,,,,,,,,j,0,0.8171153562143445,,,01,F,False,True,2018_Oct_17_1318,pilot_RL,119.99249366503082,
 ,VERLIES je 0.1 euro.,"gestraft wordt, doordat je 0.1 euro verliest.",(0.1 euro verloren),eerste,1,plusmin,logs\sub-01\stims_session-plusmin.csv,logs\sub-01\trials_phase-learning_session-plusmin.csv,learning,64_vs_36,logs\sub-01\id-1354_gender-F_age-23_rewardprob-36_session-plusmin.png,logs\sub-01\id-1269_gender-F_age-23_rewardprob-64_session-plusmin.png,j,j,,,,,,,,,,,,0,0,0,0,,,,,1,82,182,91,,,,,,,,,,,,j,1,0.5837223858106881,,,01,F,False,True,2018_Oct_17_1318,pilot_RL,119.99249366503082,
