reward_choice	left_face	right_face	rewarded_resp	RT	actual_resp	rewarded	session	correct_resp	correct
80_vs_20	id-1269_gender-F_age-23_rewardprob-80_session-plusneu.png	id-1291_gender-F_age-24_rewardprob-20_session-plusneu.png	f	2.000244687	f	1.0	plusneu	f	1
80_vs_20	id-1269_gender-F_age-23_rewardprob-80_session-plusneu.png	id-1291_gender-F_age-24_rewardprob-20_session-plusneu.png	f	1.733664369	f	1.0	plusneu	f	1
64_vs_36	id-1274_gender-F_age-33_rewardprob-64_session-plusneu.png	id-1360_gender-F_age-20_rewardprob-36_session-plusneu.png	j	1.7353122330000001	j	1.0	plusneu	f	0
64_vs_36	id-1274_gender-F_age-33_rewardprob-64_session-plusneu.png	id-1360_gender-F_age-20_rewardprob-36_session-plusneu.png	f	1.268706488	j	0.0	plusneu	f	0
64_vs_36	id-1360_gender-F_age-20_rewardprob-36_session-plusneu.png	id-1274_gender-F_age-33_rewardprob-64_session-plusneu.png	j	1.300174824	f	0.0	plusneu	j	0
80_vs_20	id-1269_gender-F_age-23_rewardprob-80_session-plusneu.png	id-1291_gender-F_age-24_rewardprob-20_session-plusneu.png	f	1.166981651	f	1.0	plusneu	f	1
80_vs_20	id-1291_gender-F_age-24_rewardprob-20_session-plusneu.png	id-1269_gender-F_age-23_rewardprob-80_session-plusneu.png	j	1.166950089	j	1.0	plusneu	j	1
80_vs_20	id-1291_gender-F_age-24_rewardprob-20_session-plusneu.png	id-1269_gender-F_age-23_rewardprob-80_session-plusneu.png	j	1.233546565	j	1.0	plusneu	j	1
64_vs_36	id-1274_gender-F_age-33_rewardprob-64_session-plusneu.png	id-1360_gender-F_age-20_rewardprob-36_session-plusneu.png	j	2.0337092830000003	f	0.0	plusneu	f	1
64_vs_36	id-1360_gender-F_age-20_rewardprob-36_session-plusneu.png	id-1274_gender-F_age-33_rewardprob-64_session-plusneu.png	j	1.433478759	j	1.0	plusneu	j	1
64_vs_36	id-1360_gender-F_age-20_rewardprob-36_session-plusneu.png	id-1274_gender-F_age-33_rewardprob-64_session-plusneu.png	f	1.133656268	j	0.0	plusneu	j	1
64_vs_36	id-1360_gender-F_age-20_rewardprob-36_session-plusneu.png	id-1274_gender-F_age-33_rewardprob-64_session-plusneu.png	j	1.5002886119999999	j	1.0	plusneu	j	1
80_vs_20	id-1291_gender-F_age-24_rewardprob-20_session-plusneu.png	id-1269_gender-F_age-23_rewardprob-80_session-plusneu.png	f	1.4355504469999998	j	0.0	plusneu	j	1
64_vs_36	id-1360_gender-F_age-20_rewardprob-36_session-plusneu.png	id-1274_gender-F_age-33_rewardprob-64_session-plusneu.png	f	1.53363866	j	0.0	plusneu	j	1
64_vs_36	id-1360_gender-F_age-20_rewardprob-36_session-plusneu.png	id-1274_gender-F_age-33_rewardprob-64_session-plusneu.png	f	1.200025507	f	1.0	plusneu	j	0
80_vs_20	id-1269_gender-F_age-23_rewardprob-80_session-plusneu.png	id-1291_gender-F_age-24_rewardprob-20_session-plusneu.png	f	1.5335536280000002	f	1.0	plusneu	f	1
64_vs_36	id-1360_gender-F_age-20_rewardprob-36_session-plusneu.png	id-1274_gender-F_age-33_rewardprob-64_session-plusneu.png	j	1.033618091	f	0.0	plusneu	j	0
80_vs_20	id-1291_gender-F_age-24_rewardprob-20_session-plusneu.png	id-1269_gender-F_age-23_rewardprob-80_session-plusneu.png	f	1.233620415	j	0.0	plusneu	j	1
64_vs_36	id-1360_gender-F_age-20_rewardprob-36_session-plusneu.png	id-1274_gender-F_age-33_rewardprob-64_session-plusneu.png	j	1.2335904979999999	f	0.0	plusneu	j	0
64_vs_36	id-1274_gender-F_age-33_rewardprob-64_session-plusneu.png	id-1360_gender-F_age-20_rewardprob-36_session-plusneu.png	f	0.933581062	f	1.0	plusneu	f	1
64_vs_36	id-1274_gender-F_age-33_rewardprob-64_session-plusneu.png	id-1360_gender-F_age-20_rewardprob-36_session-plusneu.png	j	0.733577698	f	0.0	plusneu	f	1
80_vs_20	id-1291_gender-F_age-24_rewardprob-20_session-plusneu.png	id-1269_gender-F_age-23_rewardprob-80_session-plusneu.png	f	1.866985664	j	0.0	plusneu	j	1
64_vs_36	id-1274_gender-F_age-33_rewardprob-64_session-plusneu.png	id-1360_gender-F_age-20_rewardprob-36_session-plusneu.png	f	1.333647564	f	1.0	plusneu	f	1
64_vs_36	id-1274_gender-F_age-33_rewardprob-64_session-plusneu.png	id-1360_gender-F_age-20_rewardprob-36_session-plusneu.png	j	0.735120615	f	0.0	plusneu	f	1
64_vs_36	id-1360_gender-F_age-20_rewardprob-36_session-plusneu.png	id-1274_gender-F_age-33_rewardprob-64_session-plusneu.png	j	1.433694911	j	1.0	plusneu	j	1
64_vs_36	id-1274_gender-F_age-33_rewardprob-64_session-plusneu.png	id-1360_gender-F_age-20_rewardprob-36_session-plusneu.png	f	1.000402722	f	1.0	plusneu	f	1
80_vs_20	id-1269_gender-F_age-23_rewardprob-80_session-plusneu.png	id-1291_gender-F_age-24_rewardprob-20_session-plusneu.png	f	1.666862588	f	1.0	plusneu	f	1
80_vs_20	id-1291_gender-F_age-24_rewardprob-20_session-plusneu.png	id-1269_gender-F_age-23_rewardprob-80_session-plusneu.png	j	0.800489448	f	0.0	plusneu	j	0
64_vs_36	id-1360_gender-F_age-20_rewardprob-36_session-plusneu.png	id-1274_gender-F_age-33_rewardprob-64_session-plusneu.png	f	1.333472651	j	0.0	plusneu	j	1
80_vs_20	id-1291_gender-F_age-24_rewardprob-20_session-plusneu.png	id-1269_gender-F_age-23_rewardprob-80_session-plusneu.png	j	0.867044017	j	1.0	plusneu	j	1
80_vs_20	id-1269_gender-F_age-23_rewardprob-80_session-plusneu.png	id-1291_gender-F_age-24_rewardprob-20_session-plusneu.png	f	2.000339023	f	1.0	plusneu	f	1
80_vs_20	id-1269_gender-F_age-23_rewardprob-80_session-plusneu.png	id-1291_gender-F_age-24_rewardprob-20_session-plusneu.png	j	1.8334063109999998	f	0.0	plusneu	f	1
64_vs_36	id-1360_gender-F_age-20_rewardprob-36_session-plusneu.png	id-1274_gender-F_age-33_rewardprob-64_session-plusneu.png	j	1.56554131	f	0.0	plusneu	j	0
80_vs_20	id-1269_gender-F_age-23_rewardprob-80_session-plusneu.png	id-1291_gender-F_age-24_rewardprob-20_session-plusneu.png	f	0.764759385	f	1.0	plusneu	f	1
80_vs_20	id-1269_gender-F_age-23_rewardprob-80_session-plusneu.png	id-1291_gender-F_age-24_rewardprob-20_session-plusneu.png	f	1.433728906	f	1.0	plusneu	f	1
80_vs_20	id-1291_gender-F_age-24_rewardprob-20_session-plusneu.png	id-1269_gender-F_age-23_rewardprob-80_session-plusneu.png	j	0.734931806	j	1.0	plusneu	j	1
80_vs_20	id-1291_gender-F_age-24_rewardprob-20_session-plusneu.png	id-1269_gender-F_age-23_rewardprob-80_session-plusneu.png	j	1.264507947	j	1.0	plusneu	j	1
64_vs_36	id-1274_gender-F_age-33_rewardprob-64_session-plusneu.png	id-1360_gender-F_age-20_rewardprob-36_session-plusneu.png	f	1.768297655	f	1.0	plusneu	f	1
80_vs_20	id-1291_gender-F_age-24_rewardprob-20_session-plusneu.png	id-1269_gender-F_age-23_rewardprob-80_session-plusneu.png	f	1.633759681	j	0.0	plusneu	j	1
80_vs_20	id-1269_gender-F_age-23_rewardprob-80_session-plusneu.png	id-1291_gender-F_age-24_rewardprob-20_session-plusneu.png	f	0.833748877	j	0.0	plusneu	f	0
64_vs_36	id-1360_gender-F_age-20_rewardprob-36_session-plusneu.png	id-1274_gender-F_age-33_rewardprob-64_session-plusneu.png	f	1.0997942859999998	f	1.0	plusneu	j	0
64_vs_36	id-1360_gender-F_age-20_rewardprob-36_session-plusneu.png	id-1274_gender-F_age-33_rewardprob-64_session-plusneu.png	j	0.5336566189999999	f	0.0	plusneu	j	0
64_vs_36	id-1274_gender-F_age-33_rewardprob-64_session-plusneu.png	id-1360_gender-F_age-20_rewardprob-36_session-plusneu.png	j	1.633679621	j	1.0	plusneu	f	0
80_vs_20	id-1269_gender-F_age-23_rewardprob-80_session-plusneu.png	id-1291_gender-F_age-24_rewardprob-20_session-plusneu.png	f	1.133687852	f	1.0	plusneu	f	1
64_vs_36	id-1274_gender-F_age-33_rewardprob-64_session-plusneu.png	id-1360_gender-F_age-20_rewardprob-36_session-plusneu.png	f	0.43363945200000004	f	1.0	plusneu	f	1
64_vs_36	id-1274_gender-F_age-33_rewardprob-64_session-plusneu.png	id-1360_gender-F_age-20_rewardprob-36_session-plusneu.png	f	0.666886499	f	1.0	plusneu	f	1
64_vs_36	id-1360_gender-F_age-20_rewardprob-36_session-plusneu.png	id-1274_gender-F_age-33_rewardprob-64_session-plusneu.png	f	1.266955125	j	0.0	plusneu	j	1
64_vs_36	id-1360_gender-F_age-20_rewardprob-36_session-plusneu.png	id-1274_gender-F_age-33_rewardprob-64_session-plusneu.png	f	0.6679750870000001	j	0.0	plusneu	j	1
64_vs_36	id-1360_gender-F_age-20_rewardprob-36_session-plusneu.png	id-1274_gender-F_age-33_rewardprob-64_session-plusneu.png	j	0.466969009	j	1.0	plusneu	j	1
64_vs_36	id-1274_gender-F_age-33_rewardprob-64_session-plusneu.png	id-1360_gender-F_age-20_rewardprob-36_session-plusneu.png	f	0.866894031	f	1.0	plusneu	f	1
80_vs_20	id-1291_gender-F_age-24_rewardprob-20_session-plusneu.png	id-1269_gender-F_age-23_rewardprob-80_session-plusneu.png	j	0.800232352	j	1.0	plusneu	j	1
80_vs_20	id-1269_gender-F_age-23_rewardprob-80_session-plusneu.png	id-1291_gender-F_age-24_rewardprob-20_session-plusneu.png	f	1.266978558	f	1.0	plusneu	f	1
64_vs_36	id-1274_gender-F_age-33_rewardprob-64_session-plusneu.png	id-1360_gender-F_age-20_rewardprob-36_session-plusneu.png	j	0.867687468	f	0.0	plusneu	f	1
80_vs_20	id-1269_gender-F_age-23_rewardprob-80_session-plusneu.png	id-1291_gender-F_age-24_rewardprob-20_session-plusneu.png	f	0.666961872	f	1.0	plusneu	f	1
80_vs_20	id-1269_gender-F_age-23_rewardprob-80_session-plusneu.png	id-1291_gender-F_age-24_rewardprob-20_session-plusneu.png	j	1.3012928959999999	f	0.0	plusneu	f	1
64_vs_36	id-1274_gender-F_age-33_rewardprob-64_session-plusneu.png	id-1360_gender-F_age-20_rewardprob-36_session-plusneu.png	j	0.701575666	f	0.0	plusneu	f	1
64_vs_36	id-1360_gender-F_age-20_rewardprob-36_session-plusneu.png	id-1274_gender-F_age-33_rewardprob-64_session-plusneu.png	j	1.40036799	j	1.0	plusneu	j	1
80_vs_20	id-1269_gender-F_age-23_rewardprob-80_session-plusneu.png	id-1291_gender-F_age-24_rewardprob-20_session-plusneu.png	f	0.9335269820000001	f	1.0	plusneu	f	1
80_vs_20	id-1291_gender-F_age-24_rewardprob-20_session-plusneu.png	id-1269_gender-F_age-23_rewardprob-80_session-plusneu.png	j	0.7669591370000001	j	1.0	plusneu	j	1
64_vs_36	id-1360_gender-F_age-20_rewardprob-36_session-plusneu.png	id-1274_gender-F_age-33_rewardprob-64_session-plusneu.png	j	1.166957397	j	1.0	plusneu	j	1
80_vs_20	id-1291_gender-F_age-24_rewardprob-20_session-plusneu.png	id-1269_gender-F_age-23_rewardprob-80_session-plusneu.png	j	0.666026841	j	1.0	plusneu	j	1
80_vs_20	id-1269_gender-F_age-23_rewardprob-80_session-plusneu.png	id-1291_gender-F_age-24_rewardprob-20_session-plusneu.png	j	1.167171371	j	1.0	plusneu	f	0
64_vs_36	id-1360_gender-F_age-20_rewardprob-36_session-plusneu.png	id-1274_gender-F_age-33_rewardprob-64_session-plusneu.png	f	1.100266877	f	1.0	plusneu	j	0
64_vs_36	id-1274_gender-F_age-33_rewardprob-64_session-plusneu.png	id-1360_gender-F_age-20_rewardprob-36_session-plusneu.png	f	0.6335798029999999	f	1.0	plusneu	f	1
80_vs_20	id-1291_gender-F_age-24_rewardprob-20_session-plusneu.png	id-1269_gender-F_age-23_rewardprob-80_session-plusneu.png	j	1.000799732	f	0.0	plusneu	j	0
64_vs_36	id-1274_gender-F_age-33_rewardprob-64_session-plusneu.png	id-1360_gender-F_age-20_rewardprob-36_session-plusneu.png	f	0.46694381	j	0.0	plusneu	f	0
80_vs_20	id-1291_gender-F_age-24_rewardprob-20_session-plusneu.png	id-1269_gender-F_age-23_rewardprob-80_session-plusneu.png	j	0.8668372409999999	f	0.0	plusneu	j	0
64_vs_36	id-1360_gender-F_age-20_rewardprob-36_session-plusneu.png	id-1274_gender-F_age-33_rewardprob-64_session-plusneu.png	j	1.000294999	f	0.0	plusneu	j	0
64_vs_36	id-1274_gender-F_age-33_rewardprob-64_session-plusneu.png	id-1360_gender-F_age-20_rewardprob-36_session-plusneu.png	f	1.500500966	f	1.0	plusneu	f	1
64_vs_36	id-1274_gender-F_age-33_rewardprob-64_session-plusneu.png	id-1360_gender-F_age-20_rewardprob-36_session-plusneu.png	f	1.833739484	j	0.0	plusneu	f	0
80_vs_20	id-1269_gender-F_age-23_rewardprob-80_session-plusneu.png	id-1291_gender-F_age-24_rewardprob-20_session-plusneu.png	f	0.766913848	f	1.0	plusneu	f	1
80_vs_20	id-1269_gender-F_age-23_rewardprob-80_session-plusneu.png	id-1291_gender-F_age-24_rewardprob-20_session-plusneu.png	f	1.0003214390000001	f	1.0	plusneu	f	1
80_vs_20	id-1269_gender-F_age-23_rewardprob-80_session-plusneu.png	id-1291_gender-F_age-24_rewardprob-20_session-plusneu.png	j	0.567010997	f	0.0	plusneu	f	1
80_vs_20	id-1291_gender-F_age-24_rewardprob-20_session-plusneu.png	id-1269_gender-F_age-23_rewardprob-80_session-plusneu.png	j	0.869081533	j	1.0	plusneu	j	1
64_vs_36	id-1360_gender-F_age-20_rewardprob-36_session-plusneu.png	id-1274_gender-F_age-33_rewardprob-64_session-plusneu.png	j	1.333557868	j	1.0	plusneu	j	1
80_vs_20	id-1291_gender-F_age-24_rewardprob-20_session-plusneu.png	id-1269_gender-F_age-23_rewardprob-80_session-plusneu.png	j	1.4668491380000002	f	0.0	plusneu	j	0
80_vs_20	id-1291_gender-F_age-24_rewardprob-20_session-plusneu.png	id-1269_gender-F_age-23_rewardprob-80_session-plusneu.png	j	1.333585458	j	1.0	plusneu	j	1
80_vs_20	id-1291_gender-F_age-24_rewardprob-20_session-plusneu.png	id-1269_gender-F_age-23_rewardprob-80_session-plusneu.png	j	1.300223398	f	0.0	plusneu	j	0
80_vs_20	id-1269_gender-F_age-23_rewardprob-80_session-plusneu.png	id-1291_gender-F_age-24_rewardprob-20_session-plusneu.png	f	0.867168895	f	1.0	plusneu	f	1
80_vs_20	id-1291_gender-F_age-24_rewardprob-20_session-plusneu.png	id-1269_gender-F_age-23_rewardprob-80_session-plusneu.png	j	0.500299646	f	0.0	plusneu	j	0
64_vs_36	id-1274_gender-F_age-33_rewardprob-64_session-plusneu.png	id-1360_gender-F_age-20_rewardprob-36_session-plusneu.png	f	1.500264034	f	1.0	plusneu	f	1
64_vs_36	id-1274_gender-F_age-33_rewardprob-64_session-plusneu.png	id-1360_gender-F_age-20_rewardprob-36_session-plusneu.png	j	0.6669659520000001	f	0.0	plusneu	f	1
80_vs_20	id-1269_gender-F_age-23_rewardprob-80_session-plusneu.png	id-1291_gender-F_age-24_rewardprob-20_session-plusneu.png	f	0.700314962	f	1.0	plusneu	f	1
64_vs_36	id-1360_gender-F_age-20_rewardprob-36_session-plusneu.png	id-1274_gender-F_age-33_rewardprob-64_session-plusneu.png	f	1.733859492	j	0.0	plusneu	j	1
64_vs_36	id-1360_gender-F_age-20_rewardprob-36_session-plusneu.png	id-1274_gender-F_age-33_rewardprob-64_session-plusneu.png	j	0.767074611	j	1.0	plusneu	j	1
80_vs_20	id-1269_gender-F_age-23_rewardprob-80_session-plusneu.png	id-1291_gender-F_age-24_rewardprob-20_session-plusneu.png	j	0.60025977	f	0.0	plusneu	f	1
80_vs_20	id-1291_gender-F_age-24_rewardprob-20_session-plusneu.png	id-1269_gender-F_age-23_rewardprob-80_session-plusneu.png	f	1.100255744	j	0.0	plusneu	j	1
64_vs_36	id-1274_gender-F_age-33_rewardprob-64_session-plusneu.png	id-1360_gender-F_age-20_rewardprob-36_session-plusneu.png	f	0.93370724	j	0.0	plusneu	f	0
64_vs_36	id-1274_gender-F_age-33_rewardprob-64_session-plusneu.png	id-1360_gender-F_age-20_rewardprob-36_session-plusneu.png	f	1.332392162	f	1.0	plusneu	f	1
80_vs_20	id-1291_gender-F_age-24_rewardprob-20_session-plusneu.png	id-1269_gender-F_age-23_rewardprob-80_session-plusneu.png	j	1.166918609	j	1.0	plusneu	j	1
80_vs_20	id-1269_gender-F_age-23_rewardprob-80_session-plusneu.png	id-1291_gender-F_age-24_rewardprob-20_session-plusneu.png	f	1.233655006	f	1.0	plusneu	f	1
80_vs_20	id-1291_gender-F_age-24_rewardprob-20_session-plusneu.png	id-1269_gender-F_age-23_rewardprob-80_session-plusneu.png	j	1.4002931580000002	j	1.0	plusneu	j	1
64_vs_36	id-1274_gender-F_age-33_rewardprob-64_session-plusneu.png	id-1360_gender-F_age-20_rewardprob-36_session-plusneu.png	f	1.267029702	f	1.0	plusneu	f	1
80_vs_20	id-1291_gender-F_age-24_rewardprob-20_session-plusneu.png	id-1269_gender-F_age-23_rewardprob-80_session-plusneu.png	j	1.333664833	j	1.0	plusneu	j	1
64_vs_36	id-1360_gender-F_age-20_rewardprob-36_session-plusneu.png	id-1274_gender-F_age-33_rewardprob-64_session-plusneu.png	j	1.2335835659999999	j	1.0	plusneu	j	1
80_vs_20	id-1269_gender-F_age-23_rewardprob-80_session-plusneu.png	id-1291_gender-F_age-24_rewardprob-20_session-plusneu.png	f	0.70026098	f	1.0	plusneu	f	1
64_vs_36	id-1274_gender-F_age-33_rewardprob-64_session-plusneu.png	id-1360_gender-F_age-20_rewardprob-36_session-plusneu.png	j	1.067108195	j	1.0	plusneu	f	0
80_vs_20	id-1269_gender-F_age-23_rewardprob-80_session-plusneu.png	id-1291_gender-F_age-24_rewardprob-20_session-plusneu.png	f	0.631690479	f	1.0	plusneu	f	1
80_vs_20	id-1291_gender-F_age-24_rewardprob-20_session-plusneu.png	id-1269_gender-F_age-23_rewardprob-80_session-plusneu.png	j	0.766903452	j	1.0	plusneu	j	1
64_vs_36	id-1360_gender-F_age-20_rewardprob-36_session-plusneu.png	id-1274_gender-F_age-33_rewardprob-64_session-plusneu.png	j	1.433819591	j	1.0	plusneu	j	1
80_vs_20	id-1269_gender-F_age-23_rewardprob-80_session-plusneu.png	id-1291_gender-F_age-24_rewardprob-20_session-plusneu.png	f	0.667008274	f	1.0	plusneu	f	1
80_vs_20	id-1291_gender-F_age-24_rewardprob-20_session-plusneu.png	id-1269_gender-F_age-23_rewardprob-80_session-plusneu.png	j	1.566993989	j	1.0	plusneu	j	1
80_vs_20	id-1291_gender-F_age-24_rewardprob-20_session-plusneu.png	id-1269_gender-F_age-23_rewardprob-80_session-plusneu.png	j	1.166940392	j	1.0	plusneu	j	1
80_vs_20	id-1291_gender-F_age-24_rewardprob-20_session-plusneu.png	id-1269_gender-F_age-23_rewardprob-80_session-plusneu.png	j	0.867059797	j	1.0	plusneu	j	1
80_vs_20	id-1269_gender-F_age-23_rewardprob-80_session-plusneu.png	id-1291_gender-F_age-24_rewardprob-20_session-plusneu.png	f	0.766898319	f	1.0	plusneu	f	1
64_vs_36	id-1360_gender-F_age-20_rewardprob-36_session-plusneu.png	id-1274_gender-F_age-33_rewardprob-64_session-plusneu.png	f	1.266996535	f	1.0	plusneu	j	0
80_vs_20	id-1269_gender-F_age-23_rewardprob-80_session-plusneu.png	id-1291_gender-F_age-24_rewardprob-20_session-plusneu.png	j	0.567051324	f	0.0	plusneu	f	1
80_vs_20	id-1291_gender-F_age-24_rewardprob-20_session-plusneu.png	id-1269_gender-F_age-23_rewardprob-80_session-plusneu.png	j	2.10241731	j	1.0	plusneu	j	1
64_vs_36	id-1360_gender-F_age-20_rewardprob-36_session-plusneu.png	id-1274_gender-F_age-33_rewardprob-64_session-plusneu.png	j	0.76696337	j	1.0	plusneu	j	1
80_vs_20	id-1291_gender-F_age-24_rewardprob-20_session-plusneu.png	id-1269_gender-F_age-23_rewardprob-80_session-plusneu.png	j	0.66848899	j	1.0	plusneu	j	1
64_vs_36	id-1274_gender-F_age-33_rewardprob-64_session-plusneu.png	id-1360_gender-F_age-20_rewardprob-36_session-plusneu.png	f	0.8002898079999999	f	1.0	plusneu	f	1
80_vs_20	id-1291_gender-F_age-24_rewardprob-20_session-plusneu.png	id-1269_gender-F_age-23_rewardprob-80_session-plusneu.png	j	1.333561305	j	1.0	plusneu	j	1
64_vs_36	id-1274_gender-F_age-33_rewardprob-64_session-plusneu.png	id-1360_gender-F_age-20_rewardprob-36_session-plusneu.png	f	1.233577985	f	1.0	plusneu	f	1
64_vs_36	id-1274_gender-F_age-33_rewardprob-64_session-plusneu.png	id-1360_gender-F_age-20_rewardprob-36_session-plusneu.png	j	0.533645236	f	0.0	plusneu	f	1
64_vs_36	id-1360_gender-F_age-20_rewardprob-36_session-plusneu.png	id-1274_gender-F_age-33_rewardprob-64_session-plusneu.png	j	1.833591175	j	1.0	plusneu	j	1
64_vs_36	id-1274_gender-F_age-33_rewardprob-64_session-plusneu.png	id-1360_gender-F_age-20_rewardprob-36_session-plusneu.png	j	1.566947483	j	1.0	plusneu	f	0
80_vs_20	id-1291_gender-F_age-24_rewardprob-20_session-plusneu.png	id-1269_gender-F_age-23_rewardprob-80_session-plusneu.png	j	0.733691172	j	1.0	plusneu	j	1
80_vs_20	id-1269_gender-F_age-23_rewardprob-80_session-plusneu.png	id-1291_gender-F_age-24_rewardprob-20_session-plusneu.png	f	0.6669590470000001	f	1.0	plusneu	f	1
80_vs_20	id-1269_gender-F_age-23_rewardprob-80_session-plusneu.png	id-1291_gender-F_age-24_rewardprob-20_session-plusneu.png	f	0.533741638	f	1.0	plusneu	f	1
80_vs_20	id-1291_gender-F_age-24_rewardprob-20_session-plusneu.png	id-1269_gender-F_age-23_rewardprob-80_session-plusneu.png	j	0.965073725	j	1.0	plusneu	j	1
80_vs_20	id-1269_gender-F_age-23_rewardprob-80_session-plusneu.png	id-1291_gender-F_age-24_rewardprob-20_session-plusneu.png	f	0.666747878	f	1.0	plusneu	f	1
64_vs_36	id-1274_gender-F_age-33_rewardprob-64_session-plusneu.png	id-1360_gender-F_age-20_rewardprob-36_session-plusneu.png	j	0.8655338779999999	j	1.0	plusneu	f	0
64_vs_36	id-1274_gender-F_age-33_rewardprob-64_session-plusneu.png	id-1360_gender-F_age-20_rewardprob-36_session-plusneu.png	j	1.567066048	f	0.0	plusneu	f	1
80_vs_20	id-1291_gender-F_age-24_rewardprob-20_session-plusneu.png	id-1269_gender-F_age-23_rewardprob-80_session-plusneu.png	j	0.7993033279999999	j	1.0	plusneu	j	1
80_vs_20	id-1291_gender-F_age-24_rewardprob-20_session-plusneu.png	id-1269_gender-F_age-23_rewardprob-80_session-plusneu.png	j	0.933284095	j	1.0	plusneu	j	1
80_vs_20	id-1269_gender-F_age-23_rewardprob-80_session-plusneu.png	id-1291_gender-F_age-24_rewardprob-20_session-plusneu.png	f	0.600178167	f	1.0	plusneu	f	1
80_vs_20	id-1269_gender-F_age-23_rewardprob-80_session-plusneu.png	id-1291_gender-F_age-24_rewardprob-20_session-plusneu.png	f	0.6337026139999999	f	1.0	plusneu	f	1
80_vs_20	id-1291_gender-F_age-24_rewardprob-20_session-plusneu.png	id-1269_gender-F_age-23_rewardprob-80_session-plusneu.png	f	0.668340861	j	0.0	plusneu	j	1
64_vs_36	id-1274_gender-F_age-33_rewardprob-64_session-plusneu.png	id-1360_gender-F_age-20_rewardprob-36_session-plusneu.png	f	0.666919673	f	1.0	plusneu	f	1
64_vs_36	id-1360_gender-F_age-20_rewardprob-36_session-plusneu.png	id-1274_gender-F_age-33_rewardprob-64_session-plusneu.png	j	0.8336589209999999	j	1.0	plusneu	j	1
80_vs_20	id-1269_gender-F_age-23_rewardprob-80_session-plusneu.png	id-1291_gender-F_age-24_rewardprob-20_session-plusneu.png	f	0.633785342	f	1.0	plusneu	f	1
64_vs_36	id-1274_gender-F_age-33_rewardprob-64_session-plusneu.png	id-1360_gender-F_age-20_rewardprob-36_session-plusneu.png	f	1.235144421	f	1.0	plusneu	f	1
80_vs_20	id-1291_gender-F_age-24_rewardprob-20_session-plusneu.png	id-1269_gender-F_age-23_rewardprob-80_session-plusneu.png	j	1.23352998	j	1.0	plusneu	j	1
64_vs_36	id-1360_gender-F_age-20_rewardprob-36_session-plusneu.png	id-1274_gender-F_age-33_rewardprob-64_session-plusneu.png	j	1.066931074	j	1.0	plusneu	j	1
80_vs_20	id-1269_gender-F_age-23_rewardprob-80_session-plusneu.png	id-1291_gender-F_age-24_rewardprob-20_session-plusneu.png	f	0.600356435	f	1.0	plusneu	f	1
80_vs_20	id-1269_gender-F_age-23_rewardprob-80_session-plusneu.png	id-1291_gender-F_age-24_rewardprob-20_session-plusneu.png	f	0.9001478559999999	f	1.0	plusneu	f	1
64_vs_36	id-1274_gender-F_age-33_rewardprob-64_session-plusneu.png	id-1360_gender-F_age-20_rewardprob-36_session-plusneu.png	f	2.167032603	j	0.0	plusneu	f	0
64_vs_36	id-1360_gender-F_age-20_rewardprob-36_session-plusneu.png	id-1274_gender-F_age-33_rewardprob-64_session-plusneu.png	f	0.833647957	j	0.0	plusneu	j	1
64_vs_36	id-1360_gender-F_age-20_rewardprob-36_session-plusneu.png	id-1274_gender-F_age-33_rewardprob-64_session-plusneu.png	f	1.300565844	j	0.0	plusneu	j	1
80_vs_20	id-1291_gender-F_age-24_rewardprob-20_session-plusneu.png	id-1269_gender-F_age-23_rewardprob-80_session-plusneu.png	j	0.866976414	j	1.0	plusneu	j	1
80_vs_20	id-1291_gender-F_age-24_rewardprob-20_session-plusneu.png	id-1269_gender-F_age-23_rewardprob-80_session-plusneu.png	j	1.033449138	j	1.0	plusneu	j	1
64_vs_36	id-1360_gender-F_age-20_rewardprob-36_session-plusneu.png	id-1274_gender-F_age-33_rewardprob-64_session-plusneu.png	j	1.100312398	j	1.0	plusneu	j	1
64_vs_36	id-1274_gender-F_age-33_rewardprob-64_session-plusneu.png	id-1360_gender-F_age-20_rewardprob-36_session-plusneu.png	f	0.9015201420000001	j	0.0	plusneu	f	0
80_vs_20	id-1291_gender-F_age-24_rewardprob-20_session-plusneu.png	id-1269_gender-F_age-23_rewardprob-80_session-plusneu.png	f	0.7316325690000001	j	0.0	plusneu	j	1
64_vs_36	id-1274_gender-F_age-33_rewardprob-64_session-plusneu.png	id-1360_gender-F_age-20_rewardprob-36_session-plusneu.png	j	0.93527152	f	0.0	plusneu	f	1
64_vs_36	id-1274_gender-F_age-33_rewardprob-64_session-plusneu.png	id-1360_gender-F_age-20_rewardprob-36_session-plusneu.png	f	0.73362207	j	0.0	plusneu	f	0
80_vs_20	id-1291_gender-F_age-24_rewardprob-20_session-plusneu.png	id-1269_gender-F_age-23_rewardprob-80_session-plusneu.png	j	0.6336895570000001	j	1.0	plusneu	j	1
64_vs_36	id-1274_gender-F_age-33_rewardprob-64_session-plusneu.png	id-1360_gender-F_age-20_rewardprob-36_session-plusneu.png	f	0.7003729040000001	f	1.0	plusneu	f	1
64_vs_36	id-1274_gender-F_age-33_rewardprob-64_session-plusneu.png	id-1360_gender-F_age-20_rewardprob-36_session-plusneu.png	j	1.3670334130000001	j	1.0	plusneu	f	0
64_vs_36	id-1360_gender-F_age-20_rewardprob-36_session-plusneu.png	id-1274_gender-F_age-33_rewardprob-64_session-plusneu.png	j	1.433614068	j	1.0	plusneu	j	1
80_vs_20	id-1291_gender-F_age-24_rewardprob-20_session-plusneu.png	id-1269_gender-F_age-23_rewardprob-80_session-plusneu.png	f	0.80030618	j	0.0	plusneu	j	1
80_vs_20	id-1291_gender-F_age-24_rewardprob-20_session-plusneu.png	id-1269_gender-F_age-23_rewardprob-80_session-plusneu.png	j	0.433486049	j	1.0	plusneu	j	1
64_vs_36	id-1360_gender-F_age-20_rewardprob-36_session-plusneu.png	id-1274_gender-F_age-33_rewardprob-64_session-plusneu.png	j	1.33361451	j	1.0	plusneu	j	1
80_vs_20	id-1269_gender-F_age-23_rewardprob-80_session-plusneu.png	id-1291_gender-F_age-24_rewardprob-20_session-plusneu.png	f	1.067011591	f	1.0	plusneu	f	1
80_vs_20	id-1269_gender-F_age-23_rewardprob-80_session-plusneu.png	id-1291_gender-F_age-24_rewardprob-20_session-plusneu.png	j	0.500175661	f	0.0	plusneu	f	1
80_vs_20	id-1291_gender-F_age-24_rewardprob-20_session-plusneu.png	id-1269_gender-F_age-23_rewardprob-80_session-plusneu.png	j	0.700165533	j	1.0	plusneu	j	1
64_vs_36	id-1274_gender-F_age-33_rewardprob-64_session-plusneu.png	id-1360_gender-F_age-20_rewardprob-36_session-plusneu.png	f	1.0336558820000001	f	1.0	plusneu	f	1
64_vs_36	id-1360_gender-F_age-20_rewardprob-36_session-plusneu.png	id-1274_gender-F_age-33_rewardprob-64_session-plusneu.png	f	0.83362673	f	1.0	plusneu	j	0
80_vs_20	id-1291_gender-F_age-24_rewardprob-20_session-plusneu.png	id-1269_gender-F_age-23_rewardprob-80_session-plusneu.png	f	1.000237038	j	0.0	plusneu	j	1
64_vs_36	id-1360_gender-F_age-20_rewardprob-36_session-plusneu.png	id-1274_gender-F_age-33_rewardprob-64_session-plusneu.png	j	1.433610399	j	1.0	plusneu	j	1
80_vs_20	id-1269_gender-F_age-23_rewardprob-80_session-plusneu.png	id-1291_gender-F_age-24_rewardprob-20_session-plusneu.png	f	1.6004868330000002	f	1.0	plusneu	f	1
80_vs_20	id-1291_gender-F_age-24_rewardprob-20_session-plusneu.png	id-1269_gender-F_age-23_rewardprob-80_session-plusneu.png	j	1.466961248	j	1.0	plusneu	j	1
64_vs_36	id-1274_gender-F_age-33_rewardprob-64_session-plusneu.png	id-1360_gender-F_age-20_rewardprob-36_session-plusneu.png	f	1.333600117	f	1.0	plusneu	f	1
80_vs_20	id-1269_gender-F_age-23_rewardprob-80_session-plusneu.png	id-1291_gender-F_age-24_rewardprob-20_session-plusneu.png	f	0.6666703860000001	f	1.0	plusneu	f	1
80_vs_20	id-1269_gender-F_age-23_rewardprob-80_session-plusneu.png	id-1291_gender-F_age-24_rewardprob-20_session-plusneu.png	j	0.766967099	f	0.0	plusneu	f	1
64_vs_36	id-1360_gender-F_age-20_rewardprob-36_session-plusneu.png	id-1274_gender-F_age-33_rewardprob-64_session-plusneu.png	j	0.700486452	j	1.0	plusneu	j	1
64_vs_36	id-1360_gender-F_age-20_rewardprob-36_session-plusneu.png	id-1274_gender-F_age-33_rewardprob-64_session-plusneu.png	f	0.765747416	j	0.0	plusneu	j	1
64_vs_36	id-1360_gender-F_age-20_rewardprob-36_session-plusneu.png	id-1274_gender-F_age-33_rewardprob-64_session-plusneu.png	j	0.633489396	j	1.0	plusneu	j	1
64_vs_36	id-1360_gender-F_age-20_rewardprob-36_session-plusneu.png	id-1274_gender-F_age-33_rewardprob-64_session-plusneu.png	f	0.566909247	j	0.0	plusneu	j	1
64_vs_36	id-1274_gender-F_age-33_rewardprob-64_session-plusneu.png	id-1360_gender-F_age-20_rewardprob-36_session-plusneu.png	f	0.866726002	f	1.0	plusneu	f	1
64_vs_36	id-1360_gender-F_age-20_rewardprob-36_session-plusneu.png	id-1274_gender-F_age-33_rewardprob-64_session-plusneu.png	j	2.434811349	j	1.0	plusneu	j	1
80_vs_20	id-1269_gender-F_age-23_rewardprob-80_session-plusneu.png	id-1291_gender-F_age-24_rewardprob-20_session-plusneu.png	f	0.633733808	f	1.0	plusneu	f	1
80_vs_20	id-1269_gender-F_age-23_rewardprob-80_session-plusneu.png	id-1291_gender-F_age-24_rewardprob-20_session-plusneu.png	f	0.666795147	f	1.0	plusneu	f	1
64_vs_36	id-1360_gender-F_age-20_rewardprob-36_session-plusneu.png	id-1274_gender-F_age-33_rewardprob-64_session-plusneu.png	f	0.6336322289999999	j	0.0	plusneu	j	1
80_vs_20	id-1291_gender-F_age-24_rewardprob-20_session-plusneu.png	id-1269_gender-F_age-23_rewardprob-80_session-plusneu.png	j	0.633620934	j	1.0	plusneu	j	1
64_vs_36	id-1360_gender-F_age-20_rewardprob-36_session-plusneu.png	id-1274_gender-F_age-33_rewardprob-64_session-plusneu.png	j	2.802441845	j	1.0	plusneu	j	1
64_vs_36	id-1274_gender-F_age-33_rewardprob-64_session-plusneu.png	id-1360_gender-F_age-20_rewardprob-36_session-plusneu.png	f	1.1000426079999999	j	0.0	plusneu	f	0
64_vs_36	id-1360_gender-F_age-20_rewardprob-36_session-plusneu.png	id-1274_gender-F_age-33_rewardprob-64_session-plusneu.png	j	0.6004472129999999	j	1.0	plusneu	j	1
64_vs_36	id-1360_gender-F_age-20_rewardprob-36_session-plusneu.png	id-1274_gender-F_age-33_rewardprob-64_session-plusneu.png	j	1.433529153	j	1.0	plusneu	j	1
80_vs_20	id-1291_gender-F_age-24_rewardprob-20_session-plusneu.png	id-1269_gender-F_age-23_rewardprob-80_session-plusneu.png	j	0.700364845	j	1.0	plusneu	j	1
80_vs_20	id-1291_gender-F_age-24_rewardprob-20_session-plusneu.png	id-1269_gender-F_age-23_rewardprob-80_session-plusneu.png	f	0.800406823	j	0.0	plusneu	j	1
64_vs_36	id-1274_gender-F_age-33_rewardprob-64_session-plusneu.png	id-1360_gender-F_age-20_rewardprob-36_session-plusneu.png	j	1.400205669	f	0.0	plusneu	f	1
64_vs_36	id-1360_gender-F_age-20_rewardprob-36_session-plusneu.png	id-1274_gender-F_age-33_rewardprob-64_session-plusneu.png	f	1.364932625	j	0.0	plusneu	j	1
64_vs_36	id-1274_gender-F_age-33_rewardprob-64_session-plusneu.png	id-1360_gender-F_age-20_rewardprob-36_session-plusneu.png	f	1.900334444	f	1.0	plusneu	f	1
64_vs_36	id-1274_gender-F_age-33_rewardprob-64_session-plusneu.png	id-1360_gender-F_age-20_rewardprob-36_session-plusneu.png	f	0.968280754	f	1.0	plusneu	f	1
80_vs_20	id-1269_gender-F_age-23_rewardprob-80_session-plusneu.png	id-1291_gender-F_age-24_rewardprob-20_session-plusneu.png	f	0.63365928	f	1.0	plusneu	f	1
80_vs_20	id-1269_gender-F_age-23_rewardprob-80_session-plusneu.png	id-1291_gender-F_age-24_rewardprob-20_session-plusneu.png	f	0.5651003179999999	f	1.0	plusneu	f	1
80_vs_20	id-1291_gender-F_age-24_rewardprob-20_session-plusneu.png	id-1269_gender-F_age-23_rewardprob-80_session-plusneu.png	j	0.833493643	j	1.0	plusneu	j	1
64_vs_36	id-1360_gender-F_age-20_rewardprob-36_session-plusneu.png	id-1274_gender-F_age-33_rewardprob-64_session-plusneu.png	f	1.200198382	j	0.0	plusneu	j	1
64_vs_36	id-1360_gender-F_age-20_rewardprob-36_session-plusneu.png	id-1274_gender-F_age-33_rewardprob-64_session-plusneu.png	j	1.1336335659999999	j	1.0	plusneu	j	1
64_vs_36	id-1274_gender-F_age-33_rewardprob-64_session-plusneu.png	id-1360_gender-F_age-20_rewardprob-36_session-plusneu.png	f	1.134514199	f	1.0	plusneu	f	1
80_vs_20	id-1269_gender-F_age-23_rewardprob-80_session-plusneu.png	id-1291_gender-F_age-24_rewardprob-20_session-plusneu.png	j	0.8019664870000001	f	0.0	plusneu	f	1
64_vs_36	id-1274_gender-F_age-33_rewardprob-64_session-plusneu.png	id-1360_gender-F_age-20_rewardprob-36_session-plusneu.png	j	1.033643296	f	0.0	plusneu	f	1
80_vs_20	id-1269_gender-F_age-23_rewardprob-80_session-plusneu.png	id-1291_gender-F_age-24_rewardprob-20_session-plusneu.png	f	1.032365565	f	1.0	plusneu	f	1
64_vs_36	id-1360_gender-F_age-20_rewardprob-36_session-plusneu.png	id-1274_gender-F_age-33_rewardprob-64_session-plusneu.png	j	1.466818226	f	0.0	plusneu	j	0
80_vs_20	id-1269_gender-F_age-23_rewardprob-80_session-plusneu.png	id-1291_gender-F_age-24_rewardprob-20_session-plusneu.png	f	0.9671931359999999	f	1.0	plusneu	f	1
80_vs_20	id-1269_gender-F_age-23_rewardprob-80_session-plusneu.png	id-1291_gender-F_age-24_rewardprob-20_session-plusneu.png	f	0.633640734	f	1.0	plusneu	f	1
64_vs_36	id-1274_gender-F_age-33_rewardprob-64_session-plusneu.png	id-1360_gender-F_age-20_rewardprob-36_session-plusneu.png	f	1.50012125	f	1.0	plusneu	f	1
80_vs_20	id-1269_gender-F_age-23_rewardprob-80_session-plusneu.png	id-1291_gender-F_age-24_rewardprob-20_session-plusneu.png	j	1.798789392	f	0.0	plusneu	f	1
64_vs_36	id-1274_gender-F_age-33_rewardprob-64_session-plusneu.png	id-1360_gender-F_age-20_rewardprob-36_session-plusneu.png	j	0.633610276	f	0.0	plusneu	f	1
64_vs_36	id-1285_gender-F_age-19_rewardprob-64_session-plusmin.png	id-1356_gender-F_age-20_rewardprob-36_session-plusmin.png	j	1.233725639	f	0.0	plusmin	f	1
80_vs_20	id-1270_gender-F_age-30_rewardprob-80_session-plusmin.png	id-1358_gender-F_age-32_rewardprob-20_session-plusmin.png	f	1.13363654	j	0.0	plusmin	f	0
64_vs_36	id-1356_gender-F_age-20_rewardprob-36_session-plusmin.png	id-1285_gender-F_age-19_rewardprob-64_session-plusmin.png	j	1.2688902290000001	j	1.0	plusmin	j	1
80_vs_20	id-1270_gender-F_age-30_rewardprob-80_session-plusmin.png	id-1358_gender-F_age-32_rewardprob-20_session-plusmin.png	f	1.3001714420000001	j	0.0	plusmin	f	0
64_vs_36	id-1356_gender-F_age-20_rewardprob-36_session-plusmin.png	id-1285_gender-F_age-19_rewardprob-64_session-plusmin.png	f	1.368274323	f	1.0	plusmin	j	0
80_vs_20	id-1358_gender-F_age-32_rewardprob-20_session-plusmin.png	id-1270_gender-F_age-30_rewardprob-80_session-plusmin.png	j	0.53355855	f	0.0	plusmin	j	0
80_vs_20	id-1270_gender-F_age-30_rewardprob-80_session-plusmin.png	id-1358_gender-F_age-32_rewardprob-20_session-plusmin.png	j	1.633746625	j	1.0	plusmin	f	0
64_vs_36	id-1356_gender-F_age-20_rewardprob-36_session-plusmin.png	id-1285_gender-F_age-19_rewardprob-64_session-plusmin.png	f	0.832652363	f	1.0	plusmin	j	0
64_vs_36	id-1356_gender-F_age-20_rewardprob-36_session-plusmin.png	id-1285_gender-F_age-19_rewardprob-64_session-plusmin.png	j	0.635469944	f	0.0	plusmin	j	0
64_vs_36	id-1356_gender-F_age-20_rewardprob-36_session-plusmin.png	id-1285_gender-F_age-19_rewardprob-64_session-plusmin.png	f	1.2336560140000001	f	1.0	plusmin	j	0
80_vs_20	id-1358_gender-F_age-32_rewardprob-20_session-plusmin.png	id-1270_gender-F_age-30_rewardprob-80_session-plusmin.png	j	0.6003986060000001	f	0.0	plusmin	j	0
64_vs_36	id-1285_gender-F_age-19_rewardprob-64_session-plusmin.png	id-1356_gender-F_age-20_rewardprob-36_session-plusmin.png	f	1.3671428319999999	j	0.0	plusmin	f	0
80_vs_20	id-1270_gender-F_age-30_rewardprob-80_session-plusmin.png	id-1358_gender-F_age-32_rewardprob-20_session-plusmin.png	f	0.667022543	j	0.0	plusmin	f	0
80_vs_20	id-1270_gender-F_age-30_rewardprob-80_session-plusmin.png	id-1358_gender-F_age-32_rewardprob-20_session-plusmin.png	f	0.6984987659999999	j	0.0	plusmin	f	0
64_vs_36	id-1356_gender-F_age-20_rewardprob-36_session-plusmin.png	id-1285_gender-F_age-19_rewardprob-64_session-plusmin.png	f	1.23366651	f	1.0	plusmin	j	0
80_vs_20	id-1358_gender-F_age-32_rewardprob-20_session-plusmin.png	id-1270_gender-F_age-30_rewardprob-80_session-plusmin.png	f	0.866910973	j	0.0	plusmin	j	1
64_vs_36	id-1356_gender-F_age-20_rewardprob-36_session-plusmin.png	id-1285_gender-F_age-19_rewardprob-64_session-plusmin.png	j	1.000408125	f	0.0	plusmin	j	0
64_vs_36	id-1285_gender-F_age-19_rewardprob-64_session-plusmin.png	id-1356_gender-F_age-20_rewardprob-36_session-plusmin.png	f	1.200263797	j	0.0	plusmin	f	0
64_vs_36	id-1285_gender-F_age-19_rewardprob-64_session-plusmin.png	id-1356_gender-F_age-20_rewardprob-36_session-plusmin.png	f	1.133583375	f	1.0	plusmin	f	1
64_vs_36	id-1285_gender-F_age-19_rewardprob-64_session-plusmin.png	id-1356_gender-F_age-20_rewardprob-36_session-plusmin.png	f	0.7017088709999999	f	1.0	plusmin	f	1
80_vs_20	id-1358_gender-F_age-32_rewardprob-20_session-plusmin.png	id-1270_gender-F_age-30_rewardprob-80_session-plusmin.png	f	1.3636154809999999	j	0.0	plusmin	j	1
80_vs_20	id-1358_gender-F_age-32_rewardprob-20_session-plusmin.png	id-1270_gender-F_age-30_rewardprob-80_session-plusmin.png	j	1.266941366	j	1.0	plusmin	j	1
80_vs_20	id-1358_gender-F_age-32_rewardprob-20_session-plusmin.png	id-1270_gender-F_age-30_rewardprob-80_session-plusmin.png	j	1.300359865	j	1.0	plusmin	j	1
80_vs_20	id-1358_gender-F_age-32_rewardprob-20_session-plusmin.png	id-1270_gender-F_age-30_rewardprob-80_session-plusmin.png	j	1.467005264	j	1.0	plusmin	j	1
64_vs_36	id-1356_gender-F_age-20_rewardprob-36_session-plusmin.png	id-1285_gender-F_age-19_rewardprob-64_session-plusmin.png	j	1.100696446	j	1.0	plusmin	j	1
64_vs_36	id-1356_gender-F_age-20_rewardprob-36_session-plusmin.png	id-1285_gender-F_age-19_rewardprob-64_session-plusmin.png	j	1.233670303	j	1.0	plusmin	j	1
80_vs_20	id-1270_gender-F_age-30_rewardprob-80_session-plusmin.png	id-1358_gender-F_age-32_rewardprob-20_session-plusmin.png	f	1.202056934	f	1.0	plusmin	f	1
64_vs_36	id-1285_gender-F_age-19_rewardprob-64_session-plusmin.png	id-1356_gender-F_age-20_rewardprob-36_session-plusmin.png	f	0.864626406	j	0.0	plusmin	f	0
80_vs_20	id-1358_gender-F_age-32_rewardprob-20_session-plusmin.png	id-1270_gender-F_age-30_rewardprob-80_session-plusmin.png	j	1.200294054	j	1.0	plusmin	j	1
64_vs_36	id-1356_gender-F_age-20_rewardprob-36_session-plusmin.png	id-1285_gender-F_age-19_rewardprob-64_session-plusmin.png	j	1.200314155	j	1.0	plusmin	j	1
64_vs_36	id-1285_gender-F_age-19_rewardprob-64_session-plusmin.png	id-1356_gender-F_age-20_rewardprob-36_session-plusmin.png	f	1.200316779	f	1.0	plusmin	f	1
64_vs_36	id-1285_gender-F_age-19_rewardprob-64_session-plusmin.png	id-1356_gender-F_age-20_rewardprob-36_session-plusmin.png	f	2.4670709090000003	f	1.0	plusmin	f	1
80_vs_20	id-1270_gender-F_age-30_rewardprob-80_session-plusmin.png	id-1358_gender-F_age-32_rewardprob-20_session-plusmin.png	f	1.701367565	f	1.0	plusmin	f	1
80_vs_20	id-1270_gender-F_age-30_rewardprob-80_session-plusmin.png	id-1358_gender-F_age-32_rewardprob-20_session-plusmin.png	f	1.332439479	f	1.0	plusmin	f	1
64_vs_36	id-1356_gender-F_age-20_rewardprob-36_session-plusmin.png	id-1285_gender-F_age-19_rewardprob-64_session-plusmin.png	f	1.700337641	f	1.0	plusmin	j	0
64_vs_36	id-1285_gender-F_age-19_rewardprob-64_session-plusmin.png	id-1356_gender-F_age-20_rewardprob-36_session-plusmin.png	f	1.7003052419999998	f	1.0	plusmin	f	1
80_vs_20	id-1358_gender-F_age-32_rewardprob-20_session-plusmin.png	id-1270_gender-F_age-30_rewardprob-80_session-plusmin.png	j	1.167143872	j	1.0	plusmin	j	1
64_vs_36	id-1285_gender-F_age-19_rewardprob-64_session-plusmin.png	id-1356_gender-F_age-20_rewardprob-36_session-plusmin.png	f	2.266748942	f	1.0	plusmin	f	1
64_vs_36	id-1356_gender-F_age-20_rewardprob-36_session-plusmin.png	id-1285_gender-F_age-19_rewardprob-64_session-plusmin.png	j	1.901956365	j	1.0	plusmin	j	1
64_vs_36	id-1356_gender-F_age-20_rewardprob-36_session-plusmin.png	id-1285_gender-F_age-19_rewardprob-64_session-plusmin.png	j	2.53356842	j	1.0	plusmin	j	1
64_vs_36	id-1285_gender-F_age-19_rewardprob-64_session-plusmin.png	id-1356_gender-F_age-20_rewardprob-36_session-plusmin.png	j		None	0.0	plusmin	f	0
64_vs_36	id-1285_gender-F_age-19_rewardprob-64_session-plusmin.png	id-1356_gender-F_age-20_rewardprob-36_session-plusmin.png	j	1.367118052	f	0.0	plusmin	f	1
80_vs_20	id-1358_gender-F_age-32_rewardprob-20_session-plusmin.png	id-1270_gender-F_age-30_rewardprob-80_session-plusmin.png	f	2.266964495	j	0.0	plusmin	j	1
64_vs_36	id-1285_gender-F_age-19_rewardprob-64_session-plusmin.png	id-1356_gender-F_age-20_rewardprob-36_session-plusmin.png	f		None	0.0	plusmin	f	0
64_vs_36	id-1356_gender-F_age-20_rewardprob-36_session-plusmin.png	id-1285_gender-F_age-19_rewardprob-64_session-plusmin.png	j	1.4337279090000001	f	0.0	plusmin	j	0
80_vs_20	id-1358_gender-F_age-32_rewardprob-20_session-plusmin.png	id-1270_gender-F_age-30_rewardprob-80_session-plusmin.png	j	0.9001562359999999	j	1.0	plusmin	j	1
64_vs_36	id-1285_gender-F_age-19_rewardprob-64_session-plusmin.png	id-1356_gender-F_age-20_rewardprob-36_session-plusmin.png	j	1.033671947	f	0.0	plusmin	f	1
80_vs_20	id-1270_gender-F_age-30_rewardprob-80_session-plusmin.png	id-1358_gender-F_age-32_rewardprob-20_session-plusmin.png	f	1.066945924	f	1.0	plusmin	f	1
80_vs_20	id-1270_gender-F_age-30_rewardprob-80_session-plusmin.png	id-1358_gender-F_age-32_rewardprob-20_session-plusmin.png	f	1.2670862390000002	f	1.0	plusmin	f	1
64_vs_36	id-1285_gender-F_age-19_rewardprob-64_session-plusmin.png	id-1356_gender-F_age-20_rewardprob-36_session-plusmin.png	j	0.63250687	j	1.0	plusmin	f	0
80_vs_20	id-1358_gender-F_age-32_rewardprob-20_session-plusmin.png	id-1270_gender-F_age-30_rewardprob-80_session-plusmin.png	f	1.034913268	j	0.0	plusmin	j	1
80_vs_20	id-1270_gender-F_age-30_rewardprob-80_session-plusmin.png	id-1358_gender-F_age-32_rewardprob-20_session-plusmin.png	f	0.6002917870000001	j	0.0	plusmin	f	0
80_vs_20	id-1270_gender-F_age-30_rewardprob-80_session-plusmin.png	id-1358_gender-F_age-32_rewardprob-20_session-plusmin.png	f	0.600208435	f	1.0	plusmin	f	1
80_vs_20	id-1270_gender-F_age-30_rewardprob-80_session-plusmin.png	id-1358_gender-F_age-32_rewardprob-20_session-plusmin.png	f	0.533623095	f	1.0	plusmin	f	1
80_vs_20	id-1358_gender-F_age-32_rewardprob-20_session-plusmin.png	id-1270_gender-F_age-30_rewardprob-80_session-plusmin.png	j	0.699255999	j	1.0	plusmin	j	1
80_vs_20	id-1358_gender-F_age-32_rewardprob-20_session-plusmin.png	id-1270_gender-F_age-30_rewardprob-80_session-plusmin.png	j	0.733710868	j	1.0	plusmin	j	1
80_vs_20	id-1358_gender-F_age-32_rewardprob-20_session-plusmin.png	id-1270_gender-F_age-30_rewardprob-80_session-plusmin.png	j	0.56697455	j	1.0	plusmin	j	1
64_vs_36	id-1356_gender-F_age-20_rewardprob-36_session-plusmin.png	id-1285_gender-F_age-19_rewardprob-64_session-plusmin.png	j	1.133696942	j	1.0	plusmin	j	1
64_vs_36	id-1285_gender-F_age-19_rewardprob-64_session-plusmin.png	id-1356_gender-F_age-20_rewardprob-36_session-plusmin.png	f	1.233554097	f	1.0	plusmin	f	1
80_vs_20	id-1358_gender-F_age-32_rewardprob-20_session-plusmin.png	id-1270_gender-F_age-30_rewardprob-80_session-plusmin.png	j	0.8652037379999999	j	1.0	plusmin	j	1
64_vs_36	id-1285_gender-F_age-19_rewardprob-64_session-plusmin.png	id-1356_gender-F_age-20_rewardprob-36_session-plusmin.png	f	1.100131639	f	1.0	plusmin	f	1
64_vs_36	id-1356_gender-F_age-20_rewardprob-36_session-plusmin.png	id-1285_gender-F_age-19_rewardprob-64_session-plusmin.png	j	0.833828118	j	1.0	plusmin	j	1
64_vs_36	id-1285_gender-F_age-19_rewardprob-64_session-plusmin.png	id-1356_gender-F_age-20_rewardprob-36_session-plusmin.png	f	0.933690018	f	1.0	plusmin	f	1
64_vs_36	id-1356_gender-F_age-20_rewardprob-36_session-plusmin.png	id-1285_gender-F_age-19_rewardprob-64_session-plusmin.png	f	1.366962613	j	0.0	plusmin	j	1
64_vs_36	id-1285_gender-F_age-19_rewardprob-64_session-plusmin.png	id-1356_gender-F_age-20_rewardprob-36_session-plusmin.png	j	1.033726159	f	0.0	plusmin	f	1
64_vs_36	id-1356_gender-F_age-20_rewardprob-36_session-plusmin.png	id-1285_gender-F_age-19_rewardprob-64_session-plusmin.png	j	2.067045599	f	0.0	plusmin	j	0
64_vs_36	id-1285_gender-F_age-19_rewardprob-64_session-plusmin.png	id-1356_gender-F_age-20_rewardprob-36_session-plusmin.png	f	0.833610156	f	1.0	plusmin	f	1
80_vs_20	id-1358_gender-F_age-32_rewardprob-20_session-plusmin.png	id-1270_gender-F_age-30_rewardprob-80_session-plusmin.png	j	0.966865023	j	1.0	plusmin	j	1
80_vs_20	id-1270_gender-F_age-30_rewardprob-80_session-plusmin.png	id-1358_gender-F_age-32_rewardprob-20_session-plusmin.png	f	0.700538318	f	1.0	plusmin	f	1
80_vs_20	id-1270_gender-F_age-30_rewardprob-80_session-plusmin.png	id-1358_gender-F_age-32_rewardprob-20_session-plusmin.png	f	2.033784259	f	1.0	plusmin	f	1
64_vs_36	id-1285_gender-F_age-19_rewardprob-64_session-plusmin.png	id-1356_gender-F_age-20_rewardprob-36_session-plusmin.png	j	2.633752967	f	0.0	plusmin	f	1
80_vs_20	id-1270_gender-F_age-30_rewardprob-80_session-plusmin.png	id-1358_gender-F_age-32_rewardprob-20_session-plusmin.png	f	0.73368308	f	1.0	plusmin	f	1
64_vs_36	id-1285_gender-F_age-19_rewardprob-64_session-plusmin.png	id-1356_gender-F_age-20_rewardprob-36_session-plusmin.png	f	1.0336413309999999	f	1.0	plusmin	f	1
64_vs_36	id-1356_gender-F_age-20_rewardprob-36_session-plusmin.png	id-1285_gender-F_age-19_rewardprob-64_session-plusmin.png	f	0.666864836	j	0.0	plusmin	j	1
80_vs_20	id-1270_gender-F_age-30_rewardprob-80_session-plusmin.png	id-1358_gender-F_age-32_rewardprob-20_session-plusmin.png	j	0.96693005	f	0.0	plusmin	f	1
80_vs_20	id-1270_gender-F_age-30_rewardprob-80_session-plusmin.png	id-1358_gender-F_age-32_rewardprob-20_session-plusmin.png	f	1.233643235	f	1.0	plusmin	f	1
64_vs_36	id-1356_gender-F_age-20_rewardprob-36_session-plusmin.png	id-1285_gender-F_age-19_rewardprob-64_session-plusmin.png	f	0.8670489029999999	j	0.0	plusmin	j	1
80_vs_20	id-1358_gender-F_age-32_rewardprob-20_session-plusmin.png	id-1270_gender-F_age-30_rewardprob-80_session-plusmin.png	j	0.733566396	j	1.0	plusmin	j	1
64_vs_36	id-1356_gender-F_age-20_rewardprob-36_session-plusmin.png	id-1285_gender-F_age-19_rewardprob-64_session-plusmin.png	j	0.7669864909999999	j	1.0	plusmin	j	1
80_vs_20	id-1358_gender-F_age-32_rewardprob-20_session-plusmin.png	id-1270_gender-F_age-30_rewardprob-80_session-plusmin.png	j	0.633569767	j	1.0	plusmin	j	1
64_vs_36	id-1356_gender-F_age-20_rewardprob-36_session-plusmin.png	id-1285_gender-F_age-19_rewardprob-64_session-plusmin.png	j	0.7669316820000001	j	1.0	plusmin	j	1
64_vs_36	id-1285_gender-F_age-19_rewardprob-64_session-plusmin.png	id-1356_gender-F_age-20_rewardprob-36_session-plusmin.png	j	0.666736201	j	1.0	plusmin	f	0
80_vs_20	id-1270_gender-F_age-30_rewardprob-80_session-plusmin.png	id-1358_gender-F_age-32_rewardprob-20_session-plusmin.png	j	2.433626522	f	0.0	plusmin	f	1
80_vs_20	id-1358_gender-F_age-32_rewardprob-20_session-plusmin.png	id-1270_gender-F_age-30_rewardprob-80_session-plusmin.png	f	0.765346098	j	0.0	plusmin	j	1
80_vs_20	id-1358_gender-F_age-32_rewardprob-20_session-plusmin.png	id-1270_gender-F_age-30_rewardprob-80_session-plusmin.png	j	0.466888287	f	0.0	plusmin	j	0
64_vs_36	id-1356_gender-F_age-20_rewardprob-36_session-plusmin.png	id-1285_gender-F_age-19_rewardprob-64_session-plusmin.png	j	0.866861599	j	1.0	plusmin	j	1
64_vs_36	id-1356_gender-F_age-20_rewardprob-36_session-plusmin.png	id-1285_gender-F_age-19_rewardprob-64_session-plusmin.png	f	1.133655864	j	0.0	plusmin	j	1
80_vs_20	id-1358_gender-F_age-32_rewardprob-20_session-plusmin.png	id-1270_gender-F_age-30_rewardprob-80_session-plusmin.png	j	2.132281716	j	1.0	plusmin	j	1
80_vs_20	id-1358_gender-F_age-32_rewardprob-20_session-plusmin.png	id-1270_gender-F_age-30_rewardprob-80_session-plusmin.png	j	1.133931959	j	1.0	plusmin	j	1
64_vs_36	id-1356_gender-F_age-20_rewardprob-36_session-plusmin.png	id-1285_gender-F_age-19_rewardprob-64_session-plusmin.png	j	1.633680644	j	1.0	plusmin	j	1
80_vs_20	id-1270_gender-F_age-30_rewardprob-80_session-plusmin.png	id-1358_gender-F_age-32_rewardprob-20_session-plusmin.png	f	0.533688119	j	0.0	plusmin	f	0
80_vs_20	id-1270_gender-F_age-30_rewardprob-80_session-plusmin.png	id-1358_gender-F_age-32_rewardprob-20_session-plusmin.png	j	0.60062346	j	1.0	plusmin	f	0
80_vs_20	id-1270_gender-F_age-30_rewardprob-80_session-plusmin.png	id-1358_gender-F_age-32_rewardprob-20_session-plusmin.png	f	0.60028058	f	1.0	plusmin	f	1
80_vs_20	id-1270_gender-F_age-30_rewardprob-80_session-plusmin.png	id-1358_gender-F_age-32_rewardprob-20_session-plusmin.png	j	1.600152802	f	0.0	plusmin	f	1
80_vs_20	id-1358_gender-F_age-32_rewardprob-20_session-plusmin.png	id-1270_gender-F_age-30_rewardprob-80_session-plusmin.png	j	1.369397505	j	1.0	plusmin	j	1
80_vs_20	id-1358_gender-F_age-32_rewardprob-20_session-plusmin.png	id-1270_gender-F_age-30_rewardprob-80_session-plusmin.png	j	1.167023605	j	1.0	plusmin	j	1
80_vs_20	id-1270_gender-F_age-30_rewardprob-80_session-plusmin.png	id-1358_gender-F_age-32_rewardprob-20_session-plusmin.png	f	0.7003196759999999	f	1.0	plusmin	f	1
64_vs_36	id-1285_gender-F_age-19_rewardprob-64_session-plusmin.png	id-1356_gender-F_age-20_rewardprob-36_session-plusmin.png	f	0.7670404120000001	f	1.0	plusmin	f	1
64_vs_36	id-1285_gender-F_age-19_rewardprob-64_session-plusmin.png	id-1356_gender-F_age-20_rewardprob-36_session-plusmin.png	j	1.233597325	f	0.0	plusmin	f	1
80_vs_20	id-1270_gender-F_age-30_rewardprob-80_session-plusmin.png	id-1358_gender-F_age-32_rewardprob-20_session-plusmin.png	f	0.9002134629999999	f	1.0	plusmin	f	1
64_vs_36	id-1356_gender-F_age-20_rewardprob-36_session-plusmin.png	id-1285_gender-F_age-19_rewardprob-64_session-plusmin.png	j	2.068273868	j	1.0	plusmin	j	1
80_vs_20	id-1270_gender-F_age-30_rewardprob-80_session-plusmin.png	id-1358_gender-F_age-32_rewardprob-20_session-plusmin.png	f	2.067170162	f	1.0	plusmin	f	1
80_vs_20	id-1358_gender-F_age-32_rewardprob-20_session-plusmin.png	id-1270_gender-F_age-30_rewardprob-80_session-plusmin.png	j	0.833621135	j	1.0	plusmin	j	1
64_vs_36	id-1356_gender-F_age-20_rewardprob-36_session-plusmin.png	id-1285_gender-F_age-19_rewardprob-64_session-plusmin.png	j	1.467005941	j	1.0	plusmin	j	1
80_vs_20	id-1270_gender-F_age-30_rewardprob-80_session-plusmin.png	id-1358_gender-F_age-32_rewardprob-20_session-plusmin.png	f	0.600221243	f	1.0	plusmin	f	1
80_vs_20	id-1358_gender-F_age-32_rewardprob-20_session-plusmin.png	id-1270_gender-F_age-30_rewardprob-80_session-plusmin.png	j	0.735147267	j	1.0	plusmin	j	1
80_vs_20	id-1270_gender-F_age-30_rewardprob-80_session-plusmin.png	id-1358_gender-F_age-32_rewardprob-20_session-plusmin.png	f	0.73366433	f	1.0	plusmin	f	1
80_vs_20	id-1358_gender-F_age-32_rewardprob-20_session-plusmin.png	id-1270_gender-F_age-30_rewardprob-80_session-plusmin.png	j	0.600312651	j	1.0	plusmin	j	1
64_vs_36	id-1285_gender-F_age-19_rewardprob-64_session-plusmin.png	id-1356_gender-F_age-20_rewardprob-36_session-plusmin.png	j	1.2002691	f	0.0	plusmin	f	1
80_vs_20	id-1270_gender-F_age-30_rewardprob-80_session-plusmin.png	id-1358_gender-F_age-32_rewardprob-20_session-plusmin.png	f	1.435480281	f	1.0	plusmin	f	1
64_vs_36	id-1356_gender-F_age-20_rewardprob-36_session-plusmin.png	id-1285_gender-F_age-19_rewardprob-64_session-plusmin.png	f	1.534953595	j	0.0	plusmin	j	1
80_vs_20	id-1270_gender-F_age-30_rewardprob-80_session-plusmin.png	id-1358_gender-F_age-32_rewardprob-20_session-plusmin.png	j	0.5976193089999999	f	0.0	plusmin	f	1
80_vs_20	id-1270_gender-F_age-30_rewardprob-80_session-plusmin.png	id-1358_gender-F_age-32_rewardprob-20_session-plusmin.png	j	1.366774103	f	0.0	plusmin	f	1
64_vs_36	id-1285_gender-F_age-19_rewardprob-64_session-plusmin.png	id-1356_gender-F_age-20_rewardprob-36_session-plusmin.png	j	1.233632586	f	0.0	plusmin	f	1
64_vs_36	id-1356_gender-F_age-20_rewardprob-36_session-plusmin.png	id-1285_gender-F_age-19_rewardprob-64_session-plusmin.png	j	1.133511587	j	1.0	plusmin	j	1
80_vs_20	id-1358_gender-F_age-32_rewardprob-20_session-plusmin.png	id-1270_gender-F_age-30_rewardprob-80_session-plusmin.png	f	1.60033352	j	0.0	plusmin	j	1
64_vs_36	id-1285_gender-F_age-19_rewardprob-64_session-plusmin.png	id-1356_gender-F_age-20_rewardprob-36_session-plusmin.png	f	1.033594638	f	1.0	plusmin	f	1
64_vs_36	id-1356_gender-F_age-20_rewardprob-36_session-plusmin.png	id-1285_gender-F_age-19_rewardprob-64_session-plusmin.png	j	1.166840523	j	1.0	plusmin	j	1
80_vs_20	id-1270_gender-F_age-30_rewardprob-80_session-plusmin.png	id-1358_gender-F_age-32_rewardprob-20_session-plusmin.png	f	0.66696759	f	1.0	plusmin	f	1
80_vs_20	id-1358_gender-F_age-32_rewardprob-20_session-plusmin.png	id-1270_gender-F_age-30_rewardprob-80_session-plusmin.png	j	2.2669991290000002	j	1.0	plusmin	j	1
80_vs_20	id-1270_gender-F_age-30_rewardprob-80_session-plusmin.png	id-1358_gender-F_age-32_rewardprob-20_session-plusmin.png	f	0.7650400079999999	f	1.0	plusmin	f	1
80_vs_20	id-1358_gender-F_age-32_rewardprob-20_session-plusmin.png	id-1270_gender-F_age-30_rewardprob-80_session-plusmin.png	j	0.966932254	j	1.0	plusmin	j	1
80_vs_20	id-1270_gender-F_age-30_rewardprob-80_session-plusmin.png	id-1358_gender-F_age-32_rewardprob-20_session-plusmin.png	f	0.7670278009999999	f	1.0	plusmin	f	1
80_vs_20	id-1358_gender-F_age-32_rewardprob-20_session-plusmin.png	id-1270_gender-F_age-30_rewardprob-80_session-plusmin.png	j	0.700291268	j	1.0	plusmin	j	1
64_vs_36	id-1285_gender-F_age-19_rewardprob-64_session-plusmin.png	id-1356_gender-F_age-20_rewardprob-36_session-plusmin.png	f	1.067214434	f	1.0	plusmin	f	1
80_vs_20	id-1270_gender-F_age-30_rewardprob-80_session-plusmin.png	id-1358_gender-F_age-32_rewardprob-20_session-plusmin.png	j	0.63347822	f	0.0	plusmin	f	1
80_vs_20	id-1358_gender-F_age-32_rewardprob-20_session-plusmin.png	id-1270_gender-F_age-30_rewardprob-80_session-plusmin.png	j	0.900263047	j	1.0	plusmin	j	1
80_vs_20	id-1358_gender-F_age-32_rewardprob-20_session-plusmin.png	id-1270_gender-F_age-30_rewardprob-80_session-plusmin.png	j	0.9686498590000001	j	1.0	plusmin	j	1
64_vs_36	id-1356_gender-F_age-20_rewardprob-36_session-plusmin.png	id-1285_gender-F_age-19_rewardprob-64_session-plusmin.png	f	1.265751504	j	0.0	plusmin	j	1
64_vs_36	id-1285_gender-F_age-19_rewardprob-64_session-plusmin.png	id-1356_gender-F_age-20_rewardprob-36_session-plusmin.png	f	1.968509957	f	1.0	plusmin	f	1
64_vs_36	id-1285_gender-F_age-19_rewardprob-64_session-plusmin.png	id-1356_gender-F_age-20_rewardprob-36_session-plusmin.png	j	0.765943933	f	0.0	plusmin	f	1
80_vs_20	id-1358_gender-F_age-32_rewardprob-20_session-plusmin.png	id-1270_gender-F_age-30_rewardprob-80_session-plusmin.png	j	0.69849275	j	1.0	plusmin	j	1
64_vs_36	id-1356_gender-F_age-20_rewardprob-36_session-plusmin.png	id-1285_gender-F_age-19_rewardprob-64_session-plusmin.png	j	1.100023457	j	1.0	plusmin	j	1
80_vs_20	id-1358_gender-F_age-32_rewardprob-20_session-plusmin.png	id-1270_gender-F_age-30_rewardprob-80_session-plusmin.png	j	0.800333847	j	1.0	plusmin	j	1
64_vs_36	id-1356_gender-F_age-20_rewardprob-36_session-plusmin.png	id-1285_gender-F_age-19_rewardprob-64_session-plusmin.png	j	0.8001488240000001	j	1.0	plusmin	j	1
64_vs_36	id-1285_gender-F_age-19_rewardprob-64_session-plusmin.png	id-1356_gender-F_age-20_rewardprob-36_session-plusmin.png	f	0.73374653	f	1.0	plusmin	f	1
80_vs_20	id-1270_gender-F_age-30_rewardprob-80_session-plusmin.png	id-1358_gender-F_age-32_rewardprob-20_session-plusmin.png	f	1.6668001769999998	f	1.0	plusmin	f	1
64_vs_36	id-1356_gender-F_age-20_rewardprob-36_session-plusmin.png	id-1285_gender-F_age-19_rewardprob-64_session-plusmin.png	f	2.133796168	j	0.0	plusmin	j	1
64_vs_36	id-1285_gender-F_age-19_rewardprob-64_session-plusmin.png	id-1356_gender-F_age-20_rewardprob-36_session-plusmin.png	f	1.200288971	f	1.0	plusmin	f	1
80_vs_20	id-1358_gender-F_age-32_rewardprob-20_session-plusmin.png	id-1270_gender-F_age-30_rewardprob-80_session-plusmin.png	j	0.800226463	j	1.0	plusmin	j	1
80_vs_20	id-1270_gender-F_age-30_rewardprob-80_session-plusmin.png	id-1358_gender-F_age-32_rewardprob-20_session-plusmin.png	f	0.6336473979999999	f	1.0	plusmin	f	1
80_vs_20	id-1270_gender-F_age-30_rewardprob-80_session-plusmin.png	id-1358_gender-F_age-32_rewardprob-20_session-plusmin.png	f	1.8002947740000002	f	1.0	plusmin	f	1
64_vs_36	id-1285_gender-F_age-19_rewardprob-64_session-plusmin.png	id-1356_gender-F_age-20_rewardprob-36_session-plusmin.png	f	0.633682193	j	0.0	plusmin	f	0
80_vs_20	id-1358_gender-F_age-32_rewardprob-20_session-plusmin.png	id-1270_gender-F_age-30_rewardprob-80_session-plusmin.png	j	1.33350206	j	1.0	plusmin	j	1
80_vs_20	id-1270_gender-F_age-30_rewardprob-80_session-plusmin.png	id-1358_gender-F_age-32_rewardprob-20_session-plusmin.png	f	0.9019103340000001	f	1.0	plusmin	f	1
64_vs_36	id-1356_gender-F_age-20_rewardprob-36_session-plusmin.png	id-1285_gender-F_age-19_rewardprob-64_session-plusmin.png	j	0.900286255	j	1.0	plusmin	j	1
80_vs_20	id-1358_gender-F_age-32_rewardprob-20_session-plusmin.png	id-1270_gender-F_age-30_rewardprob-80_session-plusmin.png	j	1.167603297	j	1.0	plusmin	j	1
80_vs_20	id-1270_gender-F_age-30_rewardprob-80_session-plusmin.png	id-1358_gender-F_age-32_rewardprob-20_session-plusmin.png	f	0.5337727179999999	f	1.0	plusmin	f	1
64_vs_36	id-1285_gender-F_age-19_rewardprob-64_session-plusmin.png	id-1356_gender-F_age-20_rewardprob-36_session-plusmin.png	f	0.9638026129999999	f	1.0	plusmin	f	1
64_vs_36	id-1285_gender-F_age-19_rewardprob-64_session-plusmin.png	id-1356_gender-F_age-20_rewardprob-36_session-plusmin.png	f	0.768102581	f	1.0	plusmin	f	1
80_vs_20	id-1358_gender-F_age-32_rewardprob-20_session-plusmin.png	id-1270_gender-F_age-30_rewardprob-80_session-plusmin.png	j	0.635251494	j	1.0	plusmin	j	1
64_vs_36	id-1356_gender-F_age-20_rewardprob-36_session-plusmin.png	id-1285_gender-F_age-19_rewardprob-64_session-plusmin.png	j	0.966917453	j	1.0	plusmin	j	1
80_vs_20	id-1358_gender-F_age-32_rewardprob-20_session-plusmin.png	id-1270_gender-F_age-30_rewardprob-80_session-plusmin.png	f	0.632005826	j	0.0	plusmin	j	1
64_vs_36	id-1285_gender-F_age-19_rewardprob-64_session-plusmin.png	id-1356_gender-F_age-20_rewardprob-36_session-plusmin.png	j	2.265942409	f	0.0	plusmin	f	1
64_vs_36	id-1285_gender-F_age-19_rewardprob-64_session-plusmin.png	id-1356_gender-F_age-20_rewardprob-36_session-plusmin.png	f	1.300346132	f	1.0	plusmin	f	1
80_vs_20	id-1270_gender-F_age-30_rewardprob-80_session-plusmin.png	id-1358_gender-F_age-32_rewardprob-20_session-plusmin.png	j	0.73370051	f	0.0	plusmin	f	1
64_vs_36	id-1356_gender-F_age-20_rewardprob-36_session-plusmin.png	id-1285_gender-F_age-19_rewardprob-64_session-plusmin.png	f	0.900196123	j	0.0	plusmin	j	1
80_vs_20	id-1358_gender-F_age-32_rewardprob-20_session-plusmin.png	id-1270_gender-F_age-30_rewardprob-80_session-plusmin.png	j	0.666852673	j	1.0	plusmin	j	1
64_vs_36	id-1285_gender-F_age-19_rewardprob-64_session-plusmin.png	id-1356_gender-F_age-20_rewardprob-36_session-plusmin.png	f	0.933606226	f	1.0	plusmin	f	1
80_vs_20	id-1270_gender-F_age-30_rewardprob-80_session-plusmin.png	id-1358_gender-F_age-32_rewardprob-20_session-plusmin.png	f	0.7003333009999999	f	1.0	plusmin	f	1
80_vs_20	id-1358_gender-F_age-32_rewardprob-20_session-plusmin.png	id-1270_gender-F_age-30_rewardprob-80_session-plusmin.png	f	1.0671222329999999	j	0.0	plusmin	j	1
64_vs_36	id-1285_gender-F_age-19_rewardprob-64_session-plusmin.png	id-1356_gender-F_age-20_rewardprob-36_session-plusmin.png	f	1.5002458090000002	f	1.0	plusmin	f	1
64_vs_36	id-1285_gender-F_age-19_rewardprob-64_session-plusmin.png	id-1356_gender-F_age-20_rewardprob-36_session-plusmin.png	j	0.8003692490000001	f	0.0	plusmin	f	1
64_vs_36	id-1356_gender-F_age-20_rewardprob-36_session-plusmin.png	id-1285_gender-F_age-19_rewardprob-64_session-plusmin.png	f	1.098899492	j	0.0	plusmin	j	1
64_vs_36	id-1356_gender-F_age-20_rewardprob-36_session-plusmin.png	id-1285_gender-F_age-19_rewardprob-64_session-plusmin.png	j	1.433379811	j	1.0	plusmin	j	1
64_vs_36	id-1356_gender-F_age-20_rewardprob-36_session-plusmin.png	id-1285_gender-F_age-19_rewardprob-64_session-plusmin.png	j		None	0.0	plusmin	j	0
64_vs_36	id-1356_gender-F_age-20_rewardprob-36_session-plusmin.png	id-1285_gender-F_age-19_rewardprob-64_session-plusmin.png	f	1.8685034980000002	j	0.0	plusmin	j	1
64_vs_36	id-1285_gender-F_age-19_rewardprob-64_session-plusmin.png	id-1356_gender-F_age-20_rewardprob-36_session-plusmin.png	f	2.866957003	j	0.0	plusmin	f	0
64_vs_36	id-1285_gender-F_age-19_rewardprob-64_session-plusmin.png	id-1356_gender-F_age-20_rewardprob-36_session-plusmin.png	f	0.7669714759999999	f	1.0	plusmin	f	1
80_vs_20	id-1270_gender-F_age-30_rewardprob-80_session-plusmin.png	id-1358_gender-F_age-32_rewardprob-20_session-plusmin.png	f	0.700119556	f	1.0	plusmin	f	1
64_vs_36	id-1356_gender-F_age-20_rewardprob-36_session-plusmin.png	id-1285_gender-F_age-19_rewardprob-64_session-plusmin.png	f	2.03361232	j	0.0	plusmin	j	1
64_vs_36	id-1285_gender-F_age-19_rewardprob-64_session-plusmin.png	id-1356_gender-F_age-20_rewardprob-36_session-plusmin.png	j	1.733617899	f	0.0	plusmin	f	1
64_vs_36	id-1285_gender-F_age-19_rewardprob-64_session-plusmin.png	id-1356_gender-F_age-20_rewardprob-36_session-plusmin.png	j	2.000259947	f	0.0	plusmin	f	1
64_vs_36	id-1285_gender-F_age-19_rewardprob-64_session-plusmin.png	id-1356_gender-F_age-20_rewardprob-36_session-plusmin.png	j	1.233630759	f	0.0	plusmin	f	1
80_vs_20	id-1358_gender-F_age-32_rewardprob-20_session-plusmin.png	id-1270_gender-F_age-30_rewardprob-80_session-plusmin.png	j	1.233590631	f	0.0	plusmin	j	0
64_vs_36	id-1356_gender-F_age-20_rewardprob-36_session-plusmin.png	id-1285_gender-F_age-19_rewardprob-64_session-plusmin.png	j	1.633770797	j	1.0	plusmin	j	1
80_vs_20	id-1358_gender-F_age-32_rewardprob-20_session-plusmin.png	id-1270_gender-F_age-30_rewardprob-80_session-plusmin.png	j	0.9653873609999999	j	1.0	plusmin	j	1
64_vs_36	id-1356_gender-F_age-20_rewardprob-36_session-plusmin.png	id-1285_gender-F_age-19_rewardprob-64_session-plusmin.png	j	1.903249846	j	1.0	plusmin	j	1
64_vs_36	id-1285_gender-F_age-19_rewardprob-64_session-plusmin.png	id-1356_gender-F_age-20_rewardprob-36_session-plusmin.png	f	1.8669251409999998	f	1.0	plusmin	f	1
80_vs_20	id-1270_gender-F_age-30_rewardprob-80_session-plusmin.png	id-1358_gender-F_age-32_rewardprob-20_session-plusmin.png	f		None	0.0	plusmin	f	0
64_vs_36	id-1356_gender-F_age-20_rewardprob-36_session-plusmin.png	id-1285_gender-F_age-19_rewardprob-64_session-plusmin.png	j	1.1669144740000001	f	0.0	plusmin	j	0
80_vs_20	id-1358_gender-F_age-32_rewardprob-20_session-plusmin.png	id-1270_gender-F_age-30_rewardprob-80_session-plusmin.png	f	0.667062327	j	0.0	plusmin	j	1
80_vs_20	id-1270_gender-F_age-30_rewardprob-80_session-plusmin.png	id-1358_gender-F_age-32_rewardprob-20_session-plusmin.png	j	0.635007763	f	0.0	plusmin	f	1
80_vs_20	id-1270_gender-F_age-30_rewardprob-80_session-plusmin.png	id-1358_gender-F_age-32_rewardprob-20_session-plusmin.png	f	0.701620922	f	1.0	plusmin	f	1
80_vs_20	id-1270_gender-F_age-30_rewardprob-80_session-plusmin.png	id-1358_gender-F_age-32_rewardprob-20_session-plusmin.png	f	0.568938108	f	1.0	plusmin	f	1
64_vs_36	id-1285_gender-F_age-19_rewardprob-64_session-plusmin.png	id-1356_gender-F_age-20_rewardprob-36_session-plusmin.png	f	1.333693459	f	1.0	plusmin	f	1
64_vs_36	id-1356_gender-F_age-20_rewardprob-36_session-plusmin.png	id-1285_gender-F_age-19_rewardprob-64_session-plusmin.png	j	0.633610445	j	1.0	plusmin	j	1
64_vs_36	id-1356_gender-F_age-20_rewardprob-36_session-plusmin.png	id-1285_gender-F_age-19_rewardprob-64_session-plusmin.png	j	1.466915285	j	1.0	plusmin	j	1
64_vs_36	id-1356_gender-F_age-20_rewardprob-36_session-plusmin.png	id-1285_gender-F_age-19_rewardprob-64_session-plusmin.png	j	1.067067545	j	1.0	plusmin	j	1
80_vs_20	id-1270_gender-F_age-30_rewardprob-80_session-plusmin.png	id-1358_gender-F_age-32_rewardprob-20_session-plusmin.png	f	0.833684842	f	1.0	plusmin	f	1
80_vs_20	id-1358_gender-F_age-32_rewardprob-20_session-plusmin.png	id-1270_gender-F_age-30_rewardprob-80_session-plusmin.png	f	0.933550532	j	0.0	plusmin	j	1
64_vs_36	id-1285_gender-F_age-19_rewardprob-64_session-plusmin.png	id-1356_gender-F_age-20_rewardprob-36_session-plusmin.png	j	1.5003463519999998	j	1.0	plusmin	f	0
64_vs_36	id-1356_gender-F_age-20_rewardprob-36_session-plusmin.png	id-1285_gender-F_age-19_rewardprob-64_session-plusmin.png	f	0.76811565	f	1.0	plusmin	j	0
80_vs_20	id-1358_gender-F_age-32_rewardprob-20_session-plusmin.png	id-1270_gender-F_age-30_rewardprob-80_session-plusmin.png	j	0.668946778	j	1.0	plusmin	j	1
80_vs_20	id-1358_gender-F_age-32_rewardprob-20_session-plusmin.png	id-1270_gender-F_age-30_rewardprob-80_session-plusmin.png	j	0.60032201	j	1.0	plusmin	j	1
80_vs_20	id-1270_gender-F_age-30_rewardprob-80_session-plusmin.png	id-1358_gender-F_age-32_rewardprob-20_session-plusmin.png	f	2.067042669	f	1.0	plusmin	f	1
64_vs_36	id-1285_gender-F_age-19_rewardprob-64_session-plusmin.png	id-1356_gender-F_age-20_rewardprob-36_session-plusmin.png	f	2.60020533	j	0.0	plusmin	f	0
80_vs_20	id-1358_gender-F_age-32_rewardprob-20_session-plusmin.png	id-1270_gender-F_age-30_rewardprob-80_session-plusmin.png	j	0.7334834140000001	j	1.0	plusmin	j	1
80_vs_20	id-1270_gender-F_age-30_rewardprob-80_session-plusmin.png	id-1358_gender-F_age-32_rewardprob-20_session-plusmin.png	f	0.7670950320000001	f	1.0	plusmin	f	1
64_vs_36	id-1356_gender-F_age-20_rewardprob-36_session-plusmin.png	id-1285_gender-F_age-19_rewardprob-64_session-plusmin.png	f	0.7994350720000001	j	0.0	plusmin	j	1
