RL_session_notice,RL_wrong_instruction,RL_wrong_instruction_n,feedback_txt_incorrect,number_str,practice_reps,session_name,stim_csv,trial_csv,phase,condition,left_face,right_face,rewarded_resp,correct_resp,pre_rating_scales_loop.thisRepN,pre_rating_scales_loop.thisTrialN,pre_rating_scales_loop.thisN,pre_rating_scales_loop.thisIndex,session_loop.thisRepN,session_loop.thisTrialN,session_loop.thisN,session_loop.thisIndex,practice_trials.thisRepN,practice_trials.thisTrialN,practice_trials.thisN,practice_trials.thisIndex,real_trials.thisRepN,real_trials.thisTrialN,real_trials.thisN,real_trials.thisIndex,real_RL_response.keys,real_RL_response.corr,real_RL_response.rt,participant,participant_gender,skip_practice,skip_ratings,date,expName,frameRate,
 ,win je niks.,dat je niks wint.,(0 euro gewonnen),eerste,1,plusneu,logs\sub-99\stims_session-plusneu.csv,logs\sub-99\trials_phase-learning_session-plusneu.csv,learning,80_vs_20,logs\sub-99\id-1291_gender-F_age-24_rewardprob-20_session-plusneu.png,logs\sub-99\id-1269_gender-F_age-23_rewardprob-80_session-plusneu.png,f,j,,,,,0,0,0,0,,,,,0,0,0,27,j,0,1.0171253651496954,99,M,True,True,2018_Oct_17_1232,pilot_RL,119.95463010432499,
 ,win je niks.,dat je niks wint.,(0 euro gewonnen),eerste,1,plusneu,logs\sub-99\stims_session-plusneu.csv,logs\sub-99\trials_phase-learning_session-plusneu.csv,learning,80_vs_20,logs\sub-99\id-1291_gender-F_age-24_rewardprob-20_session-plusneu.png,logs\sub-99\id-1269_gender-F_age-23_rewardprob-80_session-plusneu.png,j,j,,,,,0,0,0,0,,,,,0,1,1,34,f,0,0.5003633080632426,99,M,True,True,2018_Oct_17_1232,pilot_RL,119.95463010432499,
 ,win je niks.,dat je niks wint.,(0 euro gewonnen),eerste,1,plusneu,logs\sub-99\stims_session-plusneu.csv,logs\sub-99\trials_phase-learning_session-plusneu.csv,learning,64_vs_36,logs\sub-99\id-1360_gender-F_age-20_rewardprob-36_session-plusneu.png,logs\sub-99\id-1274_gender-F_age-33_rewardprob-64_session-plusneu.png,f,j,,,,,0,0,0,0,,,,,0,2,2,83,j,0,0.5920385321369395,99,M,True,True,2018_Oct_17_1232,pilot_RL,119.95463010432499,
 ,win je niks.,dat je niks wint.,(0 euro gewonnen),eerste,1,plusneu,logs\sub-99\stims_session-plusneu.csv,logs\sub-99\trials_phase-learning_session-plusneu.csv,learning,80_vs_20,logs\sub-99\id-1269_gender-F_age-23_rewardprob-80_session-plusneu.png,logs\sub-99\id-1291_gender-F_age-24_rewardprob-20_session-plusneu.png,j,f,,,,,0,0,0,0,,,,,0,3,3,24,j,1,0.241951001342386,99,M,True,True,2018_Oct_17_1232,pilot_RL,119.95463010432499,
 ,win je niks.,dat je niks wint.,(0 euro gewonnen),eerste,1,plusneu,logs\sub-99\stims_session-plusneu.csv,logs\sub-99\trials_phase-learning_session-plusneu.csv,learning,64_vs_36,logs\sub-99\id-1274_gender-F_age-33_rewardprob-64_session-plusneu.png,logs\sub-99\id-1360_gender-F_age-20_rewardprob-36_session-plusneu.png,j,f,,,,,0,0,0,0,,,,,0,4,4,71,j,1,0.2586105622467585,99,M,True,True,2018_Oct_17_1232,pilot_RL,119.95463010432499,
 ,win je niks.,dat je niks wint.,(0 euro gewonnen),eerste,1,plusneu,logs\sub-99\stims_session-plusneu.csv,logs\sub-99\trials_phase-learning_session-plusneu.csv,learning,64_vs_36,logs\sub-99\id-1360_gender-F_age-20_rewardprob-36_session-plusneu.png,logs\sub-99\id-1274_gender-F_age-33_rewardprob-64_session-plusneu.png,f,j,,,,,0,0,0,0,,,,,0,5,5,82,j,0,0.19195050414418802,99,M,True,True,2018_Oct_17_1232,pilot_RL,119.95463010432499,
 ,win je niks.,dat je niks wint.,(0 euro gewonnen),eerste,1,plusneu,logs\sub-99\stims_session-plusneu.csv,logs\sub-99\trials_phase-learning_session-plusneu.csv,learning,64_vs_36,logs\sub-99\id-1274_gender-F_age-33_rewardprob-64_session-plusneu.png,logs\sub-99\id-1360_gender-F_age-20_rewardprob-36_session-plusneu.png,j,f,,,,,0,0,0,0,,,,,0,6,6,73,f,0,0.1919530705199577,99,M,True,True,2018_Oct_17_1232,pilot_RL,119.95463010432499,
 ,win je niks.,dat je niks wint.,(0 euro gewonnen),eerste,1,plusneu,logs\sub-99\stims_session-plusneu.csv,logs\sub-99\trials_phase-learning_session-plusneu.csv,learning,64_vs_36,logs\sub-99\id-1360_gender-F_age-20_rewardprob-36_session-plusneu.png,logs\sub-99\id-1274_gender-F_age-33_rewardprob-64_session-plusneu.png,f,j,,,,,0,0,0,0,,,,,0,7,7,76,j,0,0.32530719181522727,99,M,True,True,2018_Oct_17_1232,pilot_RL,119.95463010432499,
 ,win je niks.,dat je niks wint.,(0 euro gewonnen),eerste,1,plusneu,logs\sub-99\stims_session-plusneu.csv,logs\sub-99\trials_phase-learning_session-plusneu.csv,learning,80_vs_20,logs\sub-99\id-1269_gender-F_age-23_rewardprob-80_session-plusneu.png,logs\sub-99\id-1291_gender-F_age-24_rewardprob-20_session-plusneu.png,f,f,,,,,0,0,0,0,,,,,0,8,8,2,j,0,0.16695811512181535,99,M,True,True,2018_Oct_17_1232,pilot_RL,119.95463010432499,
 ,win je niks.,dat je niks wint.,(0 euro gewonnen),eerste,1,plusneu,logs\sub-99\stims_session-plusneu.csv,logs\sub-99\trials_phase-learning_session-plusneu.csv,learning,64_vs_36,logs\sub-99\id-1274_gender-F_age-33_rewardprob-64_session-plusneu.png,logs\sub-99\id-1360_gender-F_age-20_rewardprob-36_session-plusneu.png,f,f,,,,,0,0,0,0,,,,,0,9,9,54,j,0,0.1669468870968558,99,M,True,True,2018_Oct_17_1232,pilot_RL,119.95463010432499,
 ,win je niks.,dat je niks wint.,(0 euro gewonnen),eerste,1,plusneu,logs\sub-99\stims_session-plusneu.csv,logs\sub-99\trials_phase-learning_session-plusneu.csv,learning,64_vs_36,logs\sub-99\id-1360_gender-F_age-20_rewardprob-36_session-plusneu.png,logs\sub-99\id-1274_gender-F_age-33_rewardprob-64_session-plusneu.png,j,j,,,,,0,0,0,0,,,,,0,10,10,89,f,0,0.20865465648239478,99,M,True,True,2018_Oct_17_1232,pilot_RL,119.95463010432499,
 ,win je niks.,dat je niks wint.,(0 euro gewonnen),eerste,1,plusneu,logs\sub-99\stims_session-plusneu.csv,logs\sub-99\trials_phase-learning_session-plusneu.csv,learning,80_vs_20,logs\sub-99\id-1291_gender-F_age-24_rewardprob-20_session-plusneu.png,logs\sub-99\id-1269_gender-F_age-23_rewardprob-80_session-plusneu.png,j,j,,,,,0,0,0,0,,,,,0,11,11,32,j,1,0.22531261335825548,99,M,True,True,2018_Oct_17_1232,pilot_RL,119.95463010432499,
 ,win je niks.,dat je niks wint.,(0 euro gewonnen),eerste,1,plusneu,logs\sub-99\stims_session-plusneu.csv,logs\sub-99\trials_phase-learning_session-plusneu.csv,learning,64_vs_36,logs\sub-99\id-1274_gender-F_age-33_rewardprob-64_session-plusneu.png,logs\sub-99\id-1360_gender-F_age-20_rewardprob-36_session-plusneu.png,j,f,,,,,0,0,0,0,,,,,0,12,12,68,j,1,0.1669571527163498,99,M,True,True,2018_Oct_17_1232,pilot_RL,119.95463010432499,
 ,win je niks.,dat je niks wint.,(0 euro gewonnen),eerste,1,plusneu,logs\sub-99\stims_session-plusneu.csv,logs\sub-99\trials_phase-learning_session-plusneu.csv,learning,64_vs_36,logs\sub-99\id-1360_gender-F_age-20_rewardprob-36_session-plusneu.png,logs\sub-99\id-1274_gender-F_age-33_rewardprob-64_session-plusneu.png,j,j,,,,,0,0,0,0,,,,,0,13,13,91,f,0,0.38366618123836815,99,M,True,True,2018_Oct_17_1232,pilot_RL,119.95463010432499,
 ,win je niks.,dat je niks wint.,(0 euro gewonnen),eerste,1,plusneu,logs\sub-99\stims_session-plusneu.csv,logs\sub-99\trials_phase-learning_session-plusneu.csv,learning,80_vs_20,logs\sub-99\id-1269_gender-F_age-23_rewardprob-80_session-plusneu.png,logs\sub-99\id-1291_gender-F_age-24_rewardprob-20_session-plusneu.png,f,f,,,,,0,0,0,0,,,,,0,14,14,15,f,1,0.43370645795948803,99,M,True,True,2018_Oct_17_1232,pilot_RL,119.95463010432499,
 ,win je niks.,dat je niks wint.,(0 euro gewonnen),eerste,1,plusneu,logs\sub-99\stims_session-plusneu.csv,logs\sub-99\trials_phase-learning_session-plusneu.csv,learning,80_vs_20,logs\sub-99\id-1269_gender-F_age-23_rewardprob-80_session-plusneu.png,logs\sub-99\id-1291_gender-F_age-24_rewardprob-20_session-plusneu.png,f,f,,,,,0,0,0,0,,,,,0,15,15,0,f,1,0.025294905120972544,99,M,True,True,2018_Oct_17_1232,pilot_RL,119.95463010432499,
 ,win je niks.,dat je niks wint.,(0 euro gewonnen),eerste,1,plusneu,logs\sub-99\stims_session-plusneu.csv,logs\sub-99\trials_phase-learning_session-plusneu.csv,learning,80_vs_20,logs\sub-99\id-1291_gender-F_age-24_rewardprob-20_session-plusneu.png,logs\sub-99\id-1269_gender-F_age-23_rewardprob-80_session-plusneu.png,j,j,,,,,0,0,0,0,,,,,0,16,16,49,j,1,0.6420201020664535,99,M,True,True,2018_Oct_17_1232,pilot_RL,119.95463010432499,
 ,win je niks.,dat je niks wint.,(0 euro gewonnen),eerste,1,plusneu,logs\sub-99\stims_session-plusneu.csv,logs\sub-99\trials_phase-learning_session-plusneu.csv,learning,64_vs_36,logs\sub-99\id-1360_gender-F_age-20_rewardprob-36_session-plusneu.png,logs\sub-99\id-1274_gender-F_age-33_rewardprob-64_session-plusneu.png,j,j,,,,,0,0,0,0,,,,,0,17,17,96,f,0,0.2503601802745834,99,M,True,True,2018_Oct_17_1232,pilot_RL,119.95463010432499,
 ,win je niks.,dat je niks wint.,(0 euro gewonnen),eerste,1,plusneu,logs\sub-99\stims_session-plusneu.csv,logs\sub-99\trials_phase-learning_session-plusneu.csv,learning,64_vs_36,logs\sub-99\id-1274_gender-F_age-33_rewardprob-64_session-plusneu.png,logs\sub-99\id-1360_gender-F_age-20_rewardprob-36_session-plusneu.png,f,f,,,,,0,0,0,0,,,,,0,18,18,63,j,0,0.4753144580172375,99,M,True,True,2018_Oct_17_1232,pilot_RL,119.95463010432499,
 ,win je niks.,dat je niks wint.,(0 euro gewonnen),eerste,1,plusneu,logs\sub-99\stims_session-plusneu.csv,logs\sub-99\trials_phase-learning_session-plusneu.csv,learning,64_vs_36,logs\sub-99\id-1274_gender-F_age-33_rewardprob-64_session-plusneu.png,logs\sub-99\id-1360_gender-F_age-20_rewardprob-36_session-plusneu.png,f,f,,,,,0,0,0,0,,,,,0,19,19,53,f,1,0.3919791196240112,99,M,True,True,2018_Oct_17_1232,pilot_RL,119.95463010432499,
 ,win je niks.,dat je niks wint.,(0 euro gewonnen),eerste,1,plusneu,logs\sub-99\stims_session-plusneu.csv,logs\sub-99\trials_phase-learning_session-plusneu.csv,learning,64_vs_36,logs\sub-99\id-1360_gender-F_age-20_rewardprob-36_session-plusneu.png,logs\sub-99\id-1274_gender-F_age-33_rewardprob-64_session-plusneu.png,j,j,,,,,0,0,0,0,,,,,0,20,20,85,f,0,0.24194843496661633,99,M,True,True,2018_Oct_17_1232,pilot_RL,119.95463010432499,
 ,win je niks.,dat je niks wint.,(0 euro gewonnen),eerste,1,plusneu,logs\sub-99\stims_session-plusneu.csv,logs\sub-99\trials_phase-learning_session-plusneu.csv,learning,80_vs_20,logs\sub-99\id-1269_gender-F_age-23_rewardprob-80_session-plusneu.png,logs\sub-99\id-1291_gender-F_age-24_rewardprob-20_session-plusneu.png,f,f,,,,,0,0,0,0,,,,,0,21,21,6,j,0,0.38364917878061533,99,M,True,True,2018_Oct_17_1232,pilot_RL,119.95463010432499,
 ,win je niks.,dat je niks wint.,(0 euro gewonnen),eerste,1,plusneu,logs\sub-99\stims_session-plusneu.csv,logs\sub-99\trials_phase-learning_session-plusneu.csv,learning,80_vs_20,logs\sub-99\id-1269_gender-F_age-23_rewardprob-80_session-plusneu.png,logs\sub-99\id-1291_gender-F_age-24_rewardprob-20_session-plusneu.png,f,f,,,,,0,0,0,0,,,,,0,22,22,4,f,1,0.17528516880702227,99,M,True,True,2018_Oct_17_1232,pilot_RL,119.95463010432499,
 ,win je niks.,dat je niks wint.,(0 euro gewonnen),eerste,1,plusneu,logs\sub-99\stims_session-plusneu.csv,logs\sub-99\trials_phase-learning_session-plusneu.csv,learning,64_vs_36,logs\sub-99\id-1360_gender-F_age-20_rewardprob-36_session-plusneu.png,logs\sub-99\id-1274_gender-F_age-33_rewardprob-64_session-plusneu.png,j,j,,,,,0,0,0,0,,,,,0,23,23,94,f,0,0.34202898829244077,99,M,True,True,2018_Oct_17_1232,pilot_RL,119.95463010432499,
 ,win je niks.,dat je niks wint.,(0 euro gewonnen),eerste,1,plusneu,logs\sub-99\stims_session-plusneu.csv,logs\sub-99\trials_phase-learning_session-plusneu.csv,learning,64_vs_36,logs\sub-99\id-1360_gender-F_age-20_rewardprob-36_session-plusneu.png,logs\sub-99\id-1274_gender-F_age-33_rewardprob-64_session-plusneu.png,j,j,,,,,0,0,0,0,,,,,0,24,24,90,j,1,0.5253120680572465,99,M,True,True,2018_Oct_17_1232,pilot_RL,119.95463010432499,
 ,win je niks.,dat je niks wint.,(0 euro gewonnen),eerste,1,plusneu,logs\sub-99\stims_session-plusneu.csv,logs\sub-99\trials_phase-learning_session-plusneu.csv,learning,64_vs_36,logs\sub-99\id-1274_gender-F_age-33_rewardprob-64_session-plusneu.png,logs\sub-99\id-1360_gender-F_age-20_rewardprob-36_session-plusneu.png,f,f,,,,,0,0,0,0,,,,,0,25,25,62,j,0,0.3919399818405509,99,M,True,True,2018_Oct_17_1232,pilot_RL,119.95463010432499,
 ,win je niks.,dat je niks wint.,(0 euro gewonnen),eerste,1,plusneu,logs\sub-99\stims_session-plusneu.csv,logs\sub-99\trials_phase-learning_session-plusneu.csv,learning,80_vs_20,logs\sub-99\id-1269_gender-F_age-23_rewardprob-80_session-plusneu.png,logs\sub-99\id-1291_gender-F_age-24_rewardprob-20_session-plusneu.png,f,f,,,,,0,0,0,0,,,,,0,26,26,16,f,1,0.5586539668147452,99,M,True,True,2018_Oct_17_1232,pilot_RL,119.95463010432499,
 ,win je niks.,dat je niks wint.,(0 euro gewonnen),eerste,1,plusneu,logs\sub-99\stims_session-plusneu.csv,logs\sub-99\trials_phase-learning_session-plusneu.csv,learning,64_vs_36,logs\sub-99\id-1274_gender-F_age-33_rewardprob-64_session-plusneu.png,logs\sub-99\id-1360_gender-F_age-20_rewardprob-36_session-plusneu.png,f,f,,,,,0,0,0,0,,,,,0,27,27,60,j,0,0.9836875466862693,99,M,True,True,2018_Oct_17_1232,pilot_RL,119.95463010432499,
 ,win je niks.,dat je niks wint.,(0 euro gewonnen),eerste,1,plusneu,logs\sub-99\stims_session-plusneu.csv,logs\sub-99\trials_phase-learning_session-plusneu.csv,learning,64_vs_36,logs\sub-99\id-1274_gender-F_age-33_rewardprob-64_session-plusneu.png,logs\sub-99\id-1360_gender-F_age-20_rewardprob-36_session-plusneu.png,f,f,,,,,0,0,0,0,,,,,0,28,28,55,f,1,0.09197356982622296,99,M,True,True,2018_Oct_17_1232,pilot_RL,119.95463010432499,
 ,win je niks.,dat je niks wint.,(0 euro gewonnen),eerste,1,plusneu,logs\sub-99\stims_session-plusneu.csv,logs\sub-99\trials_phase-learning_session-plusneu.csv,learning,64_vs_36,logs\sub-99\id-1274_gender-F_age-33_rewardprob-64_session-plusneu.png,logs\sub-99\id-1360_gender-F_age-20_rewardprob-36_session-plusneu.png,j,f,,,,,0,0,0,0,,,,,0,29,29,69,f,0,2.9089606052148156,99,M,True,True,2018_Oct_17_1232,pilot_RL,119.95463010432499,
 ,win je niks.,dat je niks wint.,(0 euro gewonnen),eerste,1,plusneu,logs\sub-99\stims_session-plusneu.csv,logs\sub-99\trials_phase-learning_session-plusneu.csv,learning,64_vs_36,logs\sub-99\id-1360_gender-F_age-20_rewardprob-36_session-plusneu.png,logs\sub-99\id-1274_gender-F_age-33_rewardprob-64_session-plusneu.png,j,j,,,,,0,0,0,0,,,,,0,30,30,86,f,0,0.20026793371653184,99,M,True,True,2018_Oct_17_1232,pilot_RL,119.95463010432499,
 ,win je niks.,dat je niks wint.,(0 euro gewonnen),eerste,1,plusneu,logs\sub-99\stims_session-plusneu.csv,logs\sub-99\trials_phase-learning_session-plusneu.csv,learning,80_vs_20,logs\sub-99\id-1291_gender-F_age-24_rewardprob-20_session-plusneu.png,logs\sub-99\id-1269_gender-F_age-23_rewardprob-80_session-plusneu.png,j,j,,,,,0,0,0,0,,,,,0,31,31,35,j,1,0.43367341539124027,99,M,True,True,2018_Oct_17_1232,pilot_RL,119.95463010432499,
 ,win je niks.,dat je niks wint.,(0 euro gewonnen),eerste,1,plusneu,logs\sub-99\stims_session-plusneu.csv,logs\sub-99\trials_phase-learning_session-plusneu.csv,learning,80_vs_20,logs\sub-99\id-1291_gender-F_age-24_rewardprob-20_session-plusneu.png,logs\sub-99\id-1269_gender-F_age-23_rewardprob-80_session-plusneu.png,j,j,,,,,0,0,0,0,,,,,0,32,32,31,f,0,0.4086582494783215,99,M,True,True,2018_Oct_17_1232,pilot_RL,119.95463010432499,
 ,win je niks.,dat je niks wint.,(0 euro gewonnen),eerste,1,plusneu,logs\sub-99\stims_session-plusneu.csv,logs\sub-99\trials_phase-learning_session-plusneu.csv,learning,80_vs_20,logs\sub-99\id-1291_gender-F_age-24_rewardprob-20_session-plusneu.png,logs\sub-99\id-1269_gender-F_age-23_rewardprob-80_session-plusneu.png,j,j,,,,,0,0,0,0,,,,,0,33,33,37,j,1,0.4253181311651133,99,M,True,True,2018_Oct_17_1232,pilot_RL,119.95463010432499,
 ,win je niks.,dat je niks wint.,(0 euro gewonnen),eerste,1,plusneu,logs\sub-99\stims_session-plusneu.csv,logs\sub-99\trials_phase-learning_session-plusneu.csv,learning,64_vs_36,logs\sub-99\id-1274_gender-F_age-33_rewardprob-64_session-plusneu.png,logs\sub-99\id-1360_gender-F_age-20_rewardprob-36_session-plusneu.png,j,f,,,,,0,0,0,0,,,,,0,34,34,70,f,0,1.3004306123475544,99,M,True,True,2018_Oct_17_1232,pilot_RL,119.95463010432499,
 ,win je niks.,dat je niks wint.,(0 euro gewonnen),eerste,1,plusneu,logs\sub-99\stims_session-plusneu.csv,logs\sub-99\trials_phase-learning_session-plusneu.csv,learning,80_vs_20,logs\sub-99\id-1291_gender-F_age-24_rewardprob-20_session-plusneu.png,logs\sub-99\id-1269_gender-F_age-23_rewardprob-80_session-plusneu.png,f,j,,,,,0,0,0,0,,,,,0,35,35,29,j,0,0.08361988957040012,99,M,True,True,2018_Oct_17_1232,pilot_RL,119.95463010432499,
 ,win je niks.,dat je niks wint.,(0 euro gewonnen),eerste,1,plusneu,logs\sub-99\stims_session-plusneu.csv,logs\sub-99\trials_phase-learning_session-plusneu.csv,learning,80_vs_20,logs\sub-99\id-1269_gender-F_age-23_rewardprob-80_session-plusneu.png,logs\sub-99\id-1291_gender-F_age-24_rewardprob-20_session-plusneu.png,f,f,,,,,0,0,0,0,,,,,0,36,36,8,j,0,0.12530616531148553,99,M,True,True,2018_Oct_17_1232,pilot_RL,119.95463010432499,
 ,win je niks.,dat je niks wint.,(0 euro gewonnen),eerste,1,plusneu,logs\sub-99\stims_session-plusneu.csv,logs\sub-99\trials_phase-learning_session-plusneu.csv,learning,64_vs_36,logs\sub-99\id-1360_gender-F_age-20_rewardprob-36_session-plusneu.png,logs\sub-99\id-1274_gender-F_age-33_rewardprob-64_session-plusneu.png,f,j,,,,,0,0,0,0,,,,,0,37,37,80,j,0,0.2002881441731006,99,M,True,True,2018_Oct_17_1232,pilot_RL,119.95463010432499,
 ,win je niks.,dat je niks wint.,(0 euro gewonnen),eerste,1,plusneu,logs\sub-99\stims_session-plusneu.csv,logs\sub-99\trials_phase-learning_session-plusneu.csv,learning,80_vs_20,logs\sub-99\id-1269_gender-F_age-23_rewardprob-80_session-plusneu.png,logs\sub-99\id-1291_gender-F_age-24_rewardprob-20_session-plusneu.png,f,f,,,,,0,0,0,0,,,,,0,38,38,10,f,1,0.22511820745421574,99,M,True,True,2018_Oct_17_1232,pilot_RL,119.95463010432499,
 ,win je niks.,dat je niks wint.,(0 euro gewonnen),eerste,1,plusneu,logs\sub-99\stims_session-plusneu.csv,logs\sub-99\trials_phase-learning_session-plusneu.csv,learning,64_vs_36,logs\sub-99\id-1274_gender-F_age-33_rewardprob-64_session-plusneu.png,logs\sub-99\id-1360_gender-F_age-20_rewardprob-36_session-plusneu.png,f,f,,,,,0,0,0,0,,,,,0,39,39,51,j,0,1.4171331927645952,99,M,True,True,2018_Oct_17_1232,pilot_RL,119.95463010432499,
 ,win je niks.,dat je niks wint.,(0 euro gewonnen),eerste,1,plusneu,logs\sub-99\stims_session-plusneu.csv,logs\sub-99\trials_phase-learning_session-plusneu.csv,learning,64_vs_36,logs\sub-99\id-1274_gender-F_age-33_rewardprob-64_session-plusneu.png,logs\sub-99\id-1360_gender-F_age-20_rewardprob-36_session-plusneu.png,f,f,,,,,0,0,0,0,,,,,0,40,40,56,j,0,0.567008288577199,99,M,True,True,2018_Oct_17_1232,pilot_RL,119.95463010432499,
 ,win je niks.,dat je niks wint.,(0 euro gewonnen),eerste,1,plusneu,logs\sub-99\stims_session-plusneu.csv,logs\sub-99\trials_phase-learning_session-plusneu.csv,learning,80_vs_20,logs\sub-99\id-1269_gender-F_age-23_rewardprob-80_session-plusneu.png,logs\sub-99\id-1291_gender-F_age-24_rewardprob-20_session-plusneu.png,j,f,,,,,0,0,0,0,,,,,0,41,41,22,f,0,0.8753739346284419,99,M,True,True,2018_Oct_17_1232,pilot_RL,119.95463010432499,
 ,win je niks.,dat je niks wint.,(0 euro gewonnen),eerste,1,plusneu,logs\sub-99\stims_session-plusneu.csv,logs\sub-99\trials_phase-learning_session-plusneu.csv,learning,80_vs_20,logs\sub-99\id-1291_gender-F_age-24_rewardprob-20_session-plusneu.png,logs\sub-99\id-1269_gender-F_age-23_rewardprob-80_session-plusneu.png,j,j,,,,,0,0,0,0,,,,,0,42,42,43,f,0,0.3502954103751108,99,M,True,True,2018_Oct_17_1232,pilot_RL,119.95463010432499,
 ,win je niks.,dat je niks wint.,(0 euro gewonnen),eerste,1,plusneu,logs\sub-99\stims_session-plusneu.csv,logs\sub-99\trials_phase-learning_session-plusneu.csv,learning,80_vs_20,logs\sub-99\id-1269_gender-F_age-23_rewardprob-80_session-plusneu.png,logs\sub-99\id-1291_gender-F_age-24_rewardprob-20_session-plusneu.png,f,f,,,,,0,0,0,0,,,,,0,43,43,14,j,0,0.24194169812835753,99,M,True,True,2018_Oct_17_1232,pilot_RL,119.95463010432499,
 ,win je niks.,dat je niks wint.,(0 euro gewonnen),eerste,1,plusneu,logs\sub-99\stims_session-plusneu.csv,logs\sub-99\trials_phase-learning_session-plusneu.csv,learning,64_vs_36,logs\sub-99\id-1274_gender-F_age-33_rewardprob-64_session-plusneu.png,logs\sub-99\id-1360_gender-F_age-20_rewardprob-36_session-plusneu.png,f,f,,,,,0,0,0,0,,,,,0,44,44,64,j,0,0.07528000383172184,99,M,True,True,2018_Oct_17_1232,pilot_RL,119.95463010432499,
 ,win je niks.,dat je niks wint.,(0 euro gewonnen),eerste,1,plusneu,logs\sub-99\stims_session-plusneu.csv,logs\sub-99\trials_phase-learning_session-plusneu.csv,learning,64_vs_36,logs\sub-99\id-1360_gender-F_age-20_rewardprob-36_session-plusneu.png,logs\sub-99\id-1274_gender-F_age-33_rewardprob-64_session-plusneu.png,j,j,,,,,0,0,0,0,,,,,0,45,45,98,j,1,0.10032115475041792,99,M,True,True,2018_Oct_17_1232,pilot_RL,119.95463010432499,
 ,win je niks.,dat je niks wint.,(0 euro gewonnen),eerste,1,plusneu,logs\sub-99\stims_session-plusneu.csv,logs\sub-99\trials_phase-learning_session-plusneu.csv,learning,80_vs_20,logs\sub-99\id-1269_gender-F_age-23_rewardprob-80_session-plusneu.png,logs\sub-99\id-1291_gender-F_age-24_rewardprob-20_session-plusneu.png,f,f,,,,,0,0,0,0,,,,,0,46,46,12,f,1,0.2585861813277006,99,M,True,True,2018_Oct_17_1232,pilot_RL,119.95463010432499,
 ,win je niks.,dat je niks wint.,(0 euro gewonnen),eerste,1,plusneu,logs\sub-99\stims_session-plusneu.csv,logs\sub-99\trials_phase-learning_session-plusneu.csv,learning,64_vs_36,logs\sub-99\id-1360_gender-F_age-20_rewardprob-36_session-plusneu.png,logs\sub-99\id-1274_gender-F_age-33_rewardprob-64_session-plusneu.png,j,j,,,,,0,0,0,0,,,,,0,47,47,88,f,0,0.16700912261148915,99,M,True,True,2018_Oct_17_1232,pilot_RL,119.95463010432499,
 ,win je niks.,dat je niks wint.,(0 euro gewonnen),eerste,1,plusneu,logs\sub-99\stims_session-plusneu.csv,logs\sub-99\trials_phase-learning_session-plusneu.csv,learning,64_vs_36,logs\sub-99\id-1274_gender-F_age-33_rewardprob-64_session-plusneu.png,logs\sub-99\id-1360_gender-F_age-20_rewardprob-36_session-plusneu.png,f,f,,,,,0,0,0,0,,,,,0,48,48,61,f,1,0.21695412113331258,99,M,True,True,2018_Oct_17_1232,pilot_RL,119.95463010432499,
 ,win je niks.,dat je niks wint.,(0 euro gewonnen),eerste,1,plusneu,logs\sub-99\stims_session-plusneu.csv,logs\sub-99\trials_phase-learning_session-plusneu.csv,learning,80_vs_20,logs\sub-99\id-1269_gender-F_age-23_rewardprob-80_session-plusneu.png,logs\sub-99\id-1291_gender-F_age-24_rewardprob-20_session-plusneu.png,f,f,,,,,0,0,0,0,,,,,0,49,49,13,f,1,0.7253333050757647,99,M,True,True,2018_Oct_17_1232,pilot_RL,119.95463010432499,
 ,win je niks.,dat je niks wint.,(0 euro gewonnen),eerste,1,plusneu,logs\sub-99\stims_session-plusneu.csv,logs\sub-99\trials_phase-learning_session-plusneu.csv,learning,64_vs_36,logs\sub-99\id-1360_gender-F_age-20_rewardprob-36_session-plusneu.png,logs\sub-99\id-1274_gender-F_age-33_rewardprob-64_session-plusneu.png,f,j,,,,,0,0,0,0,,,,,0,50,50,75,j,0,1.3420629933243617,99,M,True,True,2018_Oct_17_1232,pilot_RL,119.95463010432499,
 ,win je niks.,dat je niks wint.,(0 euro gewonnen),eerste,1,plusneu,logs\sub-99\stims_session-plusneu.csv,logs\sub-99\trials_phase-learning_session-plusneu.csv,learning,64_vs_36,logs\sub-99\id-1360_gender-F_age-20_rewardprob-36_session-plusneu.png,logs\sub-99\id-1274_gender-F_age-33_rewardprob-64_session-plusneu.png,j,j,,,,,0,0,0,0,,,,,0,51,51,99,f,0,0.2419221291784197,99,M,True,True,2018_Oct_17_1232,pilot_RL,119.95463010432499,
 ,win je niks.,dat je niks wint.,(0 euro gewonnen),eerste,1,plusneu,logs\sub-99\stims_session-plusneu.csv,logs\sub-99\trials_phase-learning_session-plusneu.csv,learning,80_vs_20,logs\sub-99\id-1291_gender-F_age-24_rewardprob-20_session-plusneu.png,logs\sub-99\id-1269_gender-F_age-23_rewardprob-80_session-plusneu.png,j,j,,,,,0,0,0,0,,,,,0,52,52,41,j,1,0.20033049007179216,99,M,True,True,2018_Oct_17_1232,pilot_RL,119.95463010432499,
 ,win je niks.,dat je niks wint.,(0 euro gewonnen),eerste,1,plusneu,logs\sub-99\stims_session-plusneu.csv,logs\sub-99\trials_phase-learning_session-plusneu.csv,learning,64_vs_36,logs\sub-99\id-1360_gender-F_age-20_rewardprob-36_session-plusneu.png,logs\sub-99\id-1274_gender-F_age-33_rewardprob-64_session-plusneu.png,f,j,,,,,0,0,0,0,,,,,0,53,53,81,j,0,0.6170261090737768,99,M,True,True,2018_Oct_17_1232,pilot_RL,119.95463010432499,
 ,win je niks.,dat je niks wint.,(0 euro gewonnen),eerste,1,plusneu,logs\sub-99\stims_session-plusneu.csv,logs\sub-99\trials_phase-learning_session-plusneu.csv,learning,80_vs_20,logs\sub-99\id-1291_gender-F_age-24_rewardprob-20_session-plusneu.png,logs\sub-99\id-1269_gender-F_age-23_rewardprob-80_session-plusneu.png,j,j,,,,,0,0,0,0,,,,,0,54,54,40,j,1,0.442126864916645,99,M,True,True,2018_Oct_17_1232,pilot_RL,119.95463010432499,
 ,win je niks.,dat je niks wint.,(0 euro gewonnen),eerste,1,plusneu,logs\sub-99\stims_session-plusneu.csv,logs\sub-99\trials_phase-learning_session-plusneu.csv,learning,64_vs_36,logs\sub-99\id-1360_gender-F_age-20_rewardprob-36_session-plusneu.png,logs\sub-99\id-1274_gender-F_age-33_rewardprob-64_session-plusneu.png,j,j,,,,,0,0,0,0,,,,,0,55,55,93,f,0,0.5419504559831694,99,M,True,True,2018_Oct_17_1232,pilot_RL,119.95463010432499,
 ,win je niks.,dat je niks wint.,(0 euro gewonnen),eerste,1,plusneu,logs\sub-99\stims_session-plusneu.csv,logs\sub-99\trials_phase-learning_session-plusneu.csv,learning,64_vs_36,logs\sub-99\id-1274_gender-F_age-33_rewardprob-64_session-plusneu.png,logs\sub-99\id-1360_gender-F_age-20_rewardprob-36_session-plusneu.png,j,f,,,,,0,0,0,0,,,,,0,56,56,67,f,0,1.4671368980198167,99,M,True,True,2018_Oct_17_1232,pilot_RL,119.95463010432499,
 ,win je niks.,dat je niks wint.,(0 euro gewonnen),eerste,1,plusneu,logs\sub-99\stims_session-plusneu.csv,logs\sub-99\trials_phase-learning_session-plusneu.csv,learning,80_vs_20,logs\sub-99\id-1291_gender-F_age-24_rewardprob-20_session-plusneu.png,logs\sub-99\id-1269_gender-F_age-23_rewardprob-80_session-plusneu.png,j,j,,,,,0,0,0,0,,,,,0,57,57,44,f,0,0.39204456319566816,99,M,True,True,2018_Oct_17_1232,pilot_RL,119.95463010432499,
 ,win je niks.,dat je niks wint.,(0 euro gewonnen),eerste,1,plusneu,logs\sub-99\stims_session-plusneu.csv,logs\sub-99\trials_phase-learning_session-plusneu.csv,learning,80_vs_20,logs\sub-99\id-1269_gender-F_age-23_rewardprob-80_session-plusneu.png,logs\sub-99\id-1291_gender-F_age-24_rewardprob-20_session-plusneu.png,f,f,,,,,0,0,0,0,,,,,0,58,58,19,f,1,0.4003209301736206,99,M,True,True,2018_Oct_17_1232,pilot_RL,119.95463010432499,
 ,win je niks.,dat je niks wint.,(0 euro gewonnen),eerste,1,plusneu,logs\sub-99\stims_session-plusneu.csv,logs\sub-99\trials_phase-learning_session-plusneu.csv,learning,80_vs_20,logs\sub-99\id-1269_gender-F_age-23_rewardprob-80_session-plusneu.png,logs\sub-99\id-1291_gender-F_age-24_rewardprob-20_session-plusneu.png,f,f,,,,,0,0,0,0,,,,,0,59,59,9,j,0,0.516994638426695,99,M,True,True,2018_Oct_17_1232,pilot_RL,119.95463010432499,
 ,win je niks.,dat je niks wint.,(0 euro gewonnen),eerste,1,plusneu,logs\sub-99\stims_session-plusneu.csv,logs\sub-99\trials_phase-learning_session-plusneu.csv,learning,64_vs_36,logs\sub-99\id-1274_gender-F_age-33_rewardprob-64_session-plusneu.png,logs\sub-99\id-1360_gender-F_age-20_rewardprob-36_session-plusneu.png,j,f,,,,,0,0,0,0,,,,,0,60,60,72,j,1,0.2836850765161216,99,M,True,True,2018_Oct_17_1232,pilot_RL,119.95463010432499,
 ,win je niks.,dat je niks wint.,(0 euro gewonnen),eerste,1,plusneu,logs\sub-99\stims_session-plusneu.csv,logs\sub-99\trials_phase-learning_session-plusneu.csv,learning,80_vs_20,logs\sub-99\id-1291_gender-F_age-24_rewardprob-20_session-plusneu.png,logs\sub-99\id-1269_gender-F_age-23_rewardprob-80_session-plusneu.png,j,j,,,,,0,0,0,0,,,,,0,61,61,36,f,0,0.30864153569564223,99,M,True,True,2018_Oct_17_1232,pilot_RL,119.95463010432499,
 ,win je niks.,dat je niks wint.,(0 euro gewonnen),eerste,1,plusneu,logs\sub-99\stims_session-plusneu.csv,logs\sub-99\trials_phase-learning_session-plusneu.csv,learning,80_vs_20,logs\sub-99\id-1291_gender-F_age-24_rewardprob-20_session-plusneu.png,logs\sub-99\id-1269_gender-F_age-23_rewardprob-80_session-plusneu.png,j,j,,,,,0,0,0,0,,,,,0,62,62,47,f,0,0.20866684697102755,99,M,True,True,2018_Oct_17_1232,pilot_RL,119.95463010432499,
 ,win je niks.,dat je niks wint.,(0 euro gewonnen),eerste,1,plusneu,logs\sub-99\stims_session-plusneu.csv,logs\sub-99\trials_phase-learning_session-plusneu.csv,learning,80_vs_20,logs\sub-99\id-1291_gender-F_age-24_rewardprob-20_session-plusneu.png,logs\sub-99\id-1269_gender-F_age-23_rewardprob-80_session-plusneu.png,f,j,,,,,0,0,0,0,,,,,0,63,63,25,f,1,0.2586525873048231,99,M,True,True,2018_Oct_17_1232,pilot_RL,119.95463010432499,
 ,win je niks.,dat je niks wint.,(0 euro gewonnen),eerste,1,plusneu,logs\sub-99\stims_session-plusneu.csv,logs\sub-99\trials_phase-learning_session-plusneu.csv,learning,80_vs_20,logs\sub-99\id-1291_gender-F_age-24_rewardprob-20_session-plusneu.png,logs\sub-99\id-1269_gender-F_age-23_rewardprob-80_session-plusneu.png,j,j,,,,,0,0,0,0,,,,,0,64,64,48,None,0,,99,M,True,True,2018_Oct_17_1232,pilot_RL,119.95463010432499,
 ,win je niks.,dat je niks wint.,(0 euro gewonnen),eerste,1,plusneu,logs\sub-99\stims_session-plusneu.csv,logs\sub-99\trials_phase-learning_session-plusneu.csv,learning,80_vs_20,logs\sub-99\id-1269_gender-F_age-23_rewardprob-80_session-plusneu.png,logs\sub-99\id-1291_gender-F_age-24_rewardprob-20_session-plusneu.png,f,f,,,,,0,0,0,0,,,,,0,65,65,17,j,0,0.325296284572687,99,M,True,True,2018_Oct_17_1232,pilot_RL,119.95463010432499,
 ,win je niks.,dat je niks wint.,(0 euro gewonnen),eerste,1,plusneu,logs\sub-99\stims_session-plusneu.csv,logs\sub-99\trials_phase-learning_session-plusneu.csv,learning,64_vs_36,logs\sub-99\id-1274_gender-F_age-33_rewardprob-64_session-plusneu.png,logs\sub-99\id-1360_gender-F_age-20_rewardprob-36_session-plusneu.png,j,f,,,,,0,0,0,0,,,,,0,66,66,66,None,0,,99,M,True,True,2018_Oct_17_1232,pilot_RL,119.95463010432499,
 ,win je niks.,dat je niks wint.,(0 euro gewonnen),eerste,1,plusneu,logs\sub-99\stims_session-plusneu.csv,logs\sub-99\trials_phase-learning_session-plusneu.csv,learning,64_vs_36,logs\sub-99\id-1274_gender-F_age-33_rewardprob-64_session-plusneu.png,logs\sub-99\id-1360_gender-F_age-20_rewardprob-36_session-plusneu.png,f,f,,,,,0,0,0,0,,,,,0,67,67,52,j,0,2.150509641855024,99,M,True,True,2018_Oct_17_1232,pilot_RL,119.95463010432499,
 ,win je niks.,dat je niks wint.,(0 euro gewonnen),eerste,1,plusneu,logs\sub-99\stims_session-plusneu.csv,logs\sub-99\trials_phase-learning_session-plusneu.csv,learning,80_vs_20,logs\sub-99\id-1269_gender-F_age-23_rewardprob-80_session-plusneu.png,logs\sub-99\id-1291_gender-F_age-24_rewardprob-20_session-plusneu.png,f,f,,,,,0,0,0,0,,,,,0,68,68,1,j,0,1.8588314664084464,99,M,True,True,2018_Oct_17_1232,pilot_RL,119.95463010432499,
 ,win je niks.,dat je niks wint.,(0 euro gewonnen),eerste,1,plusneu,logs\sub-99\stims_session-plusneu.csv,logs\sub-99\trials_phase-learning_session-plusneu.csv,learning,80_vs_20,logs\sub-99\id-1291_gender-F_age-24_rewardprob-20_session-plusneu.png,logs\sub-99\id-1269_gender-F_age-23_rewardprob-80_session-plusneu.png,j,j,,,,,0,0,0,0,,,,,0,69,69,39,j,1,0.05862108455039561,99,M,True,True,2018_Oct_17_1232,pilot_RL,119.95463010432499,
 ,win je niks.,dat je niks wint.,(0 euro gewonnen),eerste,1,plusneu,logs\sub-99\stims_session-plusneu.csv,logs\sub-99\trials_phase-learning_session-plusneu.csv,learning,64_vs_36,logs\sub-99\id-1360_gender-F_age-20_rewardprob-36_session-plusneu.png,logs\sub-99\id-1274_gender-F_age-33_rewardprob-64_session-plusneu.png,f,j,,,,,0,0,0,0,,,,,0,70,70,77,f,1,0.26692831265972927,99,M,True,True,2018_Oct_17_1232,pilot_RL,119.95463010432499,
 ,win je niks.,dat je niks wint.,(0 euro gewonnen),eerste,1,plusneu,logs\sub-99\stims_session-plusneu.csv,logs\sub-99\trials_phase-learning_session-plusneu.csv,learning,80_vs_20,logs\sub-99\id-1269_gender-F_age-23_rewardprob-80_session-plusneu.png,logs\sub-99\id-1291_gender-F_age-24_rewardprob-20_session-plusneu.png,f,f,,,,,0,0,0,0,,,,,0,71,71,7,j,0,1.0338038533809595,99,M,True,True,2018_Oct_17_1232,pilot_RL,119.95463010432499,
 ,win je niks.,dat je niks wint.,(0 euro gewonnen),eerste,1,plusneu,logs\sub-99\stims_session-plusneu.csv,logs\sub-99\trials_phase-learning_session-plusneu.csv,learning,80_vs_20,logs\sub-99\id-1269_gender-F_age-23_rewardprob-80_session-plusneu.png,logs\sub-99\id-1291_gender-F_age-24_rewardprob-20_session-plusneu.png,f,f,,,,,0,0,0,0,,,,,0,72,72,11,j,0,0.37531763390870765,99,M,True,True,2018_Oct_17_1232,pilot_RL,119.95463010432499,
 ,win je niks.,dat je niks wint.,(0 euro gewonnen),eerste,1,plusneu,logs\sub-99\stims_session-plusneu.csv,logs\sub-99\trials_phase-learning_session-plusneu.csv,learning,64_vs_36,logs\sub-99\id-1360_gender-F_age-20_rewardprob-36_session-plusneu.png,logs\sub-99\id-1274_gender-F_age-33_rewardprob-64_session-plusneu.png,j,j,,,,,0,0,0,0,,,,,0,73,73,87,j,1,0.20027050015050918,99,M,True,True,2018_Oct_17_1232,pilot_RL,119.95463010432499,
 ,win je niks.,dat je niks wint.,(0 euro gewonnen),eerste,1,plusneu,logs\sub-99\stims_session-plusneu.csv,logs\sub-99\trials_phase-learning_session-plusneu.csv,learning,64_vs_36,logs\sub-99\id-1360_gender-F_age-20_rewardprob-36_session-plusneu.png,logs\sub-99\id-1274_gender-F_age-33_rewardprob-64_session-plusneu.png,f,j,,,,,0,0,0,0,,,,,0,74,74,78,j,0,0.49206288100685924,99,M,True,True,2018_Oct_17_1232,pilot_RL,119.95463010432499,
 ,win je niks.,dat je niks wint.,(0 euro gewonnen),eerste,1,plusneu,logs\sub-99\stims_session-plusneu.csv,logs\sub-99\trials_phase-learning_session-plusneu.csv,learning,64_vs_36,logs\sub-99\id-1360_gender-F_age-20_rewardprob-36_session-plusneu.png,logs\sub-99\id-1274_gender-F_age-33_rewardprob-64_session-plusneu.png,j,j,,,,,0,0,0,0,,,,,0,75,75,95,f,0,0.3086582174291834,99,M,True,True,2018_Oct_17_1232,pilot_RL,119.95463010432499,
 ,win je niks.,dat je niks wint.,(0 euro gewonnen),eerste,1,plusneu,logs\sub-99\stims_session-plusneu.csv,logs\sub-99\trials_phase-learning_session-plusneu.csv,learning,80_vs_20,logs\sub-99\id-1269_gender-F_age-23_rewardprob-80_session-plusneu.png,logs\sub-99\id-1291_gender-F_age-24_rewardprob-20_session-plusneu.png,f,f,,,,,0,0,0,0,,,,,0,76,76,18,f,1,0.25886078766779974,99,M,True,True,2018_Oct_17_1232,pilot_RL,119.95463010432499,
 ,win je niks.,dat je niks wint.,(0 euro gewonnen),eerste,1,plusneu,logs\sub-99\stims_session-plusneu.csv,logs\sub-99\trials_phase-learning_session-plusneu.csv,learning,80_vs_20,logs\sub-99\id-1269_gender-F_age-23_rewardprob-80_session-plusneu.png,logs\sub-99\id-1291_gender-F_age-24_rewardprob-20_session-plusneu.png,j,f,,,,,0,0,0,0,,,,,0,77,77,23,j,1,0.2502973031369038,99,M,True,True,2018_Oct_17_1232,pilot_RL,119.95463010432499,
 ,win je niks.,dat je niks wint.,(0 euro gewonnen),eerste,1,plusneu,logs\sub-99\stims_session-plusneu.csv,logs\sub-99\trials_phase-learning_session-plusneu.csv,learning,80_vs_20,logs\sub-99\id-1291_gender-F_age-24_rewardprob-20_session-plusneu.png,logs\sub-99\id-1269_gender-F_age-23_rewardprob-80_session-plusneu.png,j,j,,,,,0,0,0,0,,,,,0,78,78,33,j,1,0.18361671367892995,99,M,True,True,2018_Oct_17_1232,pilot_RL,119.95463010432499,
 ,win je niks.,dat je niks wint.,(0 euro gewonnen),eerste,1,plusneu,logs\sub-99\stims_session-plusneu.csv,logs\sub-99\trials_phase-learning_session-plusneu.csv,learning,80_vs_20,logs\sub-99\id-1269_gender-F_age-23_rewardprob-80_session-plusneu.png,logs\sub-99\id-1291_gender-F_age-24_rewardprob-20_session-plusneu.png,f,f,,,,,0,0,0,0,,,,,0,79,79,3,j,0,0.2336470454465598,99,M,True,True,2018_Oct_17_1232,pilot_RL,119.95463010432499,
 ,win je niks.,dat je niks wint.,(0 euro gewonnen),eerste,1,plusneu,logs\sub-99\stims_session-plusneu.csv,logs\sub-99\trials_phase-learning_session-plusneu.csv,learning,64_vs_36,logs\sub-99\id-1274_gender-F_age-33_rewardprob-64_session-plusneu.png,logs\sub-99\id-1360_gender-F_age-20_rewardprob-36_session-plusneu.png,j,f,,,,,0,0,0,0,,,,,0,80,80,74,f,0,0.20858760888222605,99,M,True,True,2018_Oct_17_1232,pilot_RL,119.95463010432499,
