stim_csv,trial_csv,RL_wrong_instruction,RL_wrong_instruction_n,feedback_txt_incorrect,RL_session_notice,session_name,number_str,practice_reps,phase,rating_attribute,question,question_details,stim_file,reward_prob,condition,left_face,right_face,correct_resp,correct_face,session_loop.thisRepN,session_loop.thisTrialN,session_loop.thisN,session_loop.thisIndex,pre_rating_loop.thisRepN,pre_rating_loop.thisTrialN,pre_rating_loop.thisN,pre_rating_loop.thisIndex,pre_neutral_face_loop.thisRepN,pre_neutral_face_loop.thisTrialN,pre_neutral_face_loop.thisN,pre_neutral_face_loop.thisIndex,practice_trials.thisRepN,practice_trials.thisTrialN,practice_trials.thisN,practice_trials.thisIndex,real_trials.thisRepN,real_trials.thisTrialN,real_trials.thisN,real_trials.thisIndex,post_rating_loop.thisRepN,post_rating_loop.thisTrialN,post_rating_loop.thisN,post_rating_loop.thisIndex,post_neutral_face_loop.thisRepN,post_neutral_face_loop.thisTrialN,post_neutral_face_loop.thisN,post_neutral_face_loop.thisIndex,pre_rating_scale.response,pre_rating_scale.rt,practice_response.keys,practice_response.corr,practice_response.rt,real_RL_response.keys,real_RL_response.corr,real_RL_response.rt,post_rating_scale.response,post_rating_scale.rt,participant,response,date,expName,frameRate,
logs/sub-99/stims_session-plusneu.csv,logs/sub-99/trials_phase-learning_session-plusneu.csv,win je niks.,dat je niks wint.,(0 euro gewonnen), ,plusneu,eerste,1,pre_rating,valence,Hoe prettig vind jij dit gezicht?,None,logs/sub-99/anim-neutral_id-1318_gender-male_rewardprob-36_session-plusneu.png,80,,,,,,0,0,0,0,0,0,0,0,0,0,0,2,,,,,,,,,,,,,,,,,0,1.934,,,,,,,,,99,keyboard,2018_okt_04_1813,pilot_RL,29.994014874193727,
logs/sub-99/stims_session-plusneu.csv,logs/sub-99/trials_phase-learning_session-plusneu.csv,win je niks.,dat je niks wint.,(0 euro gewonnen), ,plusneu,eerste,1,pre_rating,valence,Hoe prettig vind jij dit gezicht?,None,logs/sub-99/anim-neutral_id-1266_gender-male_rewardprob-20_session-plusneu.png,80,,,,,,0,0,0,0,0,0,0,0,0,1,1,3,,,,,,,,,,,,,,,,,1,2.268,,,,,,,,,99,keyboard,2018_okt_04_1813,pilot_RL,29.994014874193727,
logs/sub-99/stims_session-plusneu.csv,logs/sub-99/trials_phase-learning_session-plusneu.csv,win je niks.,dat je niks wint.,(0 euro gewonnen), ,plusneu,eerste,1,pre_rating,valence,Hoe prettig vind jij dit gezicht?,None,logs/sub-99/anim-neutral_id-1280_gender-male_rewardprob-80_session-plusneu.png,80,,,,,,0,0,0,0,0,0,0,0,0,2,2,0,,,,,,,,,,,,,,,,,-1,2.168,,,,,,,,,99,keyboard,2018_okt_04_1813,pilot_RL,29.994014874193727,
logs/sub-99/stims_session-plusneu.csv,logs/sub-99/trials_phase-learning_session-plusneu.csv,win je niks.,dat je niks wint.,(0 euro gewonnen), ,plusneu,eerste,1,pre_rating,valence,Hoe prettig vind jij dit gezicht?,None,logs/sub-99/anim-neutral_id-1315_gender-male_rewardprob-64_session-plusneu.png,80,,,,,,0,0,0,0,0,0,0,0,0,3,3,1,,,,,,,,,,,,,,,,,0,2.001,,,,,,,,,99,keyboard,2018_okt_04_1813,pilot_RL,29.994014874193727,
logs/sub-99/stims_session-plusneu.csv,logs/sub-99/trials_phase-learning_session-plusneu.csv,win je niks.,dat je niks wint.,(0 euro gewonnen), ,plusneu,eerste,1,pre_rating,attractiveness,Hoe aantrekkelijk vind jij dit gezicht?,None,logs/sub-99/anim-neutral_id-1280_gender-male_rewardprob-80_session-plusneu.png,80,,,,,,0,0,0,0,0,1,1,2,0,0,0,0,,,,,,,,,,,,,,,,,-2,1.834,,,,,,,,,99,keyboard,2018_okt_04_1813,pilot_RL,29.994014874193727,
logs/sub-99/stims_session-plusneu.csv,logs/sub-99/trials_phase-learning_session-plusneu.csv,win je niks.,dat je niks wint.,(0 euro gewonnen), ,plusneu,eerste,1,pre_rating,attractiveness,Hoe aantrekkelijk vind jij dit gezicht?,None,logs/sub-99/anim-neutral_id-1318_gender-male_rewardprob-36_session-plusneu.png,80,,,,,,0,0,0,0,0,1,1,2,0,1,1,2,,,,,,,,,,,,,,,,,1,21.536,,,,,,,,,99,keyboard,2018_okt_04_1813,pilot_RL,29.994014874193727,
logs/sub-99/stims_session-plusneu.csv,logs/sub-99/trials_phase-learning_session-plusneu.csv,win je niks.,dat je niks wint.,(0 euro gewonnen), ,plusneu,eerste,1,pre_rating,attractiveness,Hoe aantrekkelijk vind jij dit gezicht?,None,logs/sub-99/anim-neutral_id-1266_gender-male_rewardprob-20_session-plusneu.png,80,,,,,,0,0,0,0,0,1,1,2,0,2,2,3,,,,,,,,,,,,,,,,,2,1.401,,,,,,,,,99,keyboard,2018_okt_04_1813,pilot_RL,29.994014874193727,
logs/sub-99/stims_session-plusneu.csv,logs/sub-99/trials_phase-learning_session-plusneu.csv,win je niks.,dat je niks wint.,(0 euro gewonnen), ,plusneu,eerste,1,pre_rating,attractiveness,Hoe aantrekkelijk vind jij dit gezicht?,None,logs/sub-99/anim-neutral_id-1315_gender-male_rewardprob-64_session-plusneu.png,80,,,,,,0,0,0,0,0,1,1,2,0,3,3,1,,,,,,,,,,,,,,,,,1,5.334,,,,,,,,,99,keyboard,2018_okt_04_1813,pilot_RL,29.994014874193727,
logs/sub-99/stims_session-plusneu.csv,logs/sub-99/trials_phase-learning_session-plusneu.csv,win je niks.,dat je niks wint.,(0 euro gewonnen), ,plusneu,eerste,1,pre_rating,trustworthiness,Hoe betrouwbaar vind jij dit gezicht?,None,logs/sub-99/anim-neutral_id-1266_gender-male_rewardprob-20_session-plusneu.png,80,,,,,,0,0,0,0,0,2,2,3,0,0,0,3,,,,,,,,,,,,,,,,,2,1.401,,,,,,,,,99,keyboard,2018_okt_04_1813,pilot_RL,29.994014874193727,
logs/sub-99/stims_session-plusneu.csv,logs/sub-99/trials_phase-learning_session-plusneu.csv,win je niks.,dat je niks wint.,(0 euro gewonnen), ,plusneu,eerste,1,pre_rating,trustworthiness,Hoe betrouwbaar vind jij dit gezicht?,None,logs/sub-99/anim-neutral_id-1315_gender-male_rewardprob-64_session-plusneu.png,80,,,,,,0,0,0,0,0,2,2,3,0,1,1,1,,,,,,,,,,,,,,,,,2,2.201,,,,,,,,,99,keyboard,2018_okt_04_1813,pilot_RL,29.994014874193727,
logs/sub-99/stims_session-plusneu.csv,logs/sub-99/trials_phase-learning_session-plusneu.csv,win je niks.,dat je niks wint.,(0 euro gewonnen), ,plusneu,eerste,1,pre_rating,trustworthiness,Hoe betrouwbaar vind jij dit gezicht?,None,logs/sub-99/anim-neutral_id-1280_gender-male_rewardprob-80_session-plusneu.png,80,,,,,,0,0,0,0,0,2,2,3,0,2,2,0,,,,,,,,,,,,,,,,,1,1.735,,,,,,,,,99,keyboard,2018_okt_04_1813,pilot_RL,29.994014874193727,
logs/sub-99/stims_session-plusneu.csv,logs/sub-99/trials_phase-learning_session-plusneu.csv,win je niks.,dat je niks wint.,(0 euro gewonnen), ,plusneu,eerste,1,pre_rating,trustworthiness,Hoe betrouwbaar vind jij dit gezicht?,None,logs/sub-99/anim-neutral_id-1318_gender-male_rewardprob-36_session-plusneu.png,80,,,,,,0,0,0,0,0,2,2,3,0,3,3,2,,,,,,,,,,,,,,,,,-1,5.235,,,,,,,,,99,keyboard,2018_okt_04_1813,pilot_RL,29.994014874193727,
logs/sub-99/stims_session-plusneu.csv,logs/sub-99/trials_phase-learning_session-plusneu.csv,win je niks.,dat je niks wint.,(0 euro gewonnen), ,plusneu,eerste,1,pre_rating,arousal,Hoe 'emotioneel opwindend' vind jij dit gezicht?,None,logs/sub-99/anim-neutral_id-1318_gender-male_rewardprob-36_session-plusneu.png,80,,,,,,0,0,0,0,0,3,3,1,0,0,0,2,,,,,,,,,,,,,,,,,2,9.401,,,,,,,,,99,keyboard,2018_okt_04_1813,pilot_RL,29.994014874193727,
logs/sub-99/stims_session-plusneu.csv,logs/sub-99/trials_phase-learning_session-plusneu.csv,win je niks.,dat je niks wint.,(0 euro gewonnen), ,plusneu,eerste,1,pre_rating,arousal,Hoe 'emotioneel opwindend' vind jij dit gezicht?,None,logs/sub-99/anim-neutral_id-1266_gender-male_rewardprob-20_session-plusneu.png,80,,,,,,0,0,0,0,0,3,3,1,0,1,1,3,,,,,,,,,,,,,,,,,3,3.201,,,,,,,,,99,keyboard,2018_okt_04_1813,pilot_RL,29.994014874193727,
logs/sub-99/stims_session-plusneu.csv,logs/sub-99/trials_phase-learning_session-plusneu.csv,win je niks.,dat je niks wint.,(0 euro gewonnen), ,plusneu,eerste,1,pre_rating,arousal,Hoe 'emotioneel opwindend' vind jij dit gezicht?,None,logs/sub-99/anim-neutral_id-1280_gender-male_rewardprob-80_session-plusneu.png,80,,,,,,0,0,0,0,0,3,3,1,0,2,2,0,,,,,,,,,,,,,,,,,0,4.935,,,,,,,,,99,keyboard,2018_okt_04_1813,pilot_RL,29.994014874193727,
logs/sub-99/stims_session-plusneu.csv,logs/sub-99/trials_phase-learning_session-plusneu.csv,win je niks.,dat je niks wint.,(0 euro gewonnen), ,plusneu,eerste,1,pre_rating,arousal,Hoe 'emotioneel opwindend' vind jij dit gezicht?,None,logs/sub-99/anim-neutral_id-1315_gender-male_rewardprob-64_session-plusneu.png,80,,,,,,0,0,0,0,0,3,3,1,0,3,3,1,,,,,,,,,,,,,,,,,1,0.901,,,,,,,,,99,keyboard,2018_okt_04_1813,pilot_RL,29.994014874193727,
logs/sub-99/stims_session-plusneu.csv,logs/sub-99/trials_phase-learning_session-plusneu.csv,win je niks.,dat je niks wint.,(0 euro gewonnen), ,plusneu,eerste,1,pre_rating,dominance,Hoe dominant vind jij dit gezicht?,None,logs/sub-99/anim-neutral_id-1266_gender-male_rewardprob-20_session-plusneu.png,80,,,,,,0,0,0,0,0,4,4,4,0,0,0,3,,,,,,,,,,,,,,,,,-2,1.234,,,,,,,,,99,keyboard,2018_okt_04_1813,pilot_RL,29.994014874193727,
logs/sub-99/stims_session-plusneu.csv,logs/sub-99/trials_phase-learning_session-plusneu.csv,win je niks.,dat je niks wint.,(0 euro gewonnen), ,plusneu,eerste,1,pre_rating,dominance,Hoe dominant vind jij dit gezicht?,None,logs/sub-99/anim-neutral_id-1315_gender-male_rewardprob-64_session-plusneu.png,80,,,,,,0,0,0,0,0,4,4,4,0,1,1,1,,,,,,,,,,,,,,,,,1,2.767,,,,,,,,,99,keyboard,2018_okt_04_1813,pilot_RL,29.994014874193727,
logs/sub-99/stims_session-plusneu.csv,logs/sub-99/trials_phase-learning_session-plusneu.csv,win je niks.,dat je niks wint.,(0 euro gewonnen), ,plusneu,eerste,1,pre_rating,dominance,Hoe dominant vind jij dit gezicht?,None,logs/sub-99/anim-neutral_id-1318_gender-male_rewardprob-36_session-plusneu.png,80,,,,,,0,0,0,0,0,4,4,4,0,2,2,2,,,,,,,,,,,,,,,,,2,1.201,,,,,,,,,99,keyboard,2018_okt_04_1813,pilot_RL,29.994014874193727,
logs/sub-99/stims_session-plusneu.csv,logs/sub-99/trials_phase-learning_session-plusneu.csv,win je niks.,dat je niks wint.,(0 euro gewonnen), ,plusneu,eerste,1,pre_rating,dominance,Hoe dominant vind jij dit gezicht?,None,logs/sub-99/anim-neutral_id-1280_gender-male_rewardprob-80_session-plusneu.png,80,,,,,,0,0,0,0,0,4,4,4,0,3,3,0,,,,,,,,,,,,,,,,,-1,0.934,,,,,,,,,99,keyboard,2018_okt_04_1813,pilot_RL,29.994014874193727,
logs/sub-99/stims_session-plusneu.csv,logs/sub-99/trials_phase-learning_session-plusneu.csv,win je niks.,dat je niks wint.,(0 euro gewonnen), ,plusneu,eerste,1,practice,,,,,,70_vs_30,stims/practice_stims/trump.jpg,stims/practice_stims/bush.jpg,j,stims/practice_stims/bush.jpg,0,0,0,0,,,,,,,,,0,0,0,10,,,,,,,,,,,,,,,f,0,1.2336510639979679,,,,,,99,keyboard,2018_okt_04_1813,pilot_RL,29.994014874193727,
logs/sub-99/stims_session-plusneu.csv,logs/sub-99/trials_phase-learning_session-plusneu.csv,win je niks.,dat je niks wint.,(0 euro gewonnen), ,plusneu,eerste,1,practice,,,,,,90_vs_10,stims/practice_stims/clinton.jpg,stims/practice_stims/obama.jpg,f,stims/practice_stims/clinton.jpg,0,0,0,0,,,,,,,,,0,1,1,9,,,,,,,,,,,,,,,j,0,1.1336183080020419,,,,,,99,keyboard,2018_okt_04_1813,pilot_RL,29.994014874193727,
logs/sub-99/stims_session-plusneu.csv,logs/sub-99/trials_phase-learning_session-plusneu.csv,win je niks.,dat je niks wint.,(0 euro gewonnen), ,plusneu,eerste,1,practice,,,,,,70_vs_30,stims/practice_stims/bush.jpg,stims/practice_stims/trump.jpg,f,stims/practice_stims/trump.jpg,0,0,0,0,,,,,,,,,0,2,2,16,,,,,,,,,,,,,,,f,1,1.7002025420006248,,,,,,99,keyboard,2018_okt_04_1813,pilot_RL,29.994014874193727,
logs/sub-99/stims_session-plusneu.csv,logs/sub-99/trials_phase-learning_session-plusneu.csv,win je niks.,dat je niks wint.,(0 euro gewonnen), ,plusneu,eerste,1,practice,,,,,,70_vs_30,stims/practice_stims/trump.jpg,stims/practice_stims/bush.jpg,j,stims/practice_stims/bush.jpg,0,0,0,0,,,,,,,,,0,3,3,11,,,,,,,,,,,,,,,j,1,0.8337032130002626,,,,,,99,keyboard,2018_okt_04_1813,pilot_RL,29.994014874193727,
logs/sub-99/stims_session-plusneu.csv,logs/sub-99/trials_phase-learning_session-plusneu.csv,win je niks.,dat je niks wint.,(0 euro gewonnen), ,plusneu,eerste,1,practice,,,,,,70_vs_30,stims/practice_stims/trump.jpg,stims/practice_stims/bush.jpg,j,stims/practice_stims/bush.jpg,0,0,0,0,,,,,,,,,0,4,4,13,,,,,,,,,,,,,,,f,0,1.866963714001031,,,,,,99,keyboard,2018_okt_04_1813,pilot_RL,29.994014874193727,
logs/sub-99/stims_session-plusneu.csv,logs/sub-99/trials_phase-learning_session-plusneu.csv,win je niks.,dat je niks wint.,(0 euro gewonnen), ,plusneu,eerste,1,practice,,,,,,70_vs_30,stims/practice_stims/bush.jpg,stims/practice_stims/trump.jpg,j,stims/practice_stims/trump.jpg,0,0,0,0,,,,,,,,,0,5,5,18,,,,,,,,,,,,,,,f,0,1.2669309320008324,,,,,,99,keyboard,2018_okt_04_1813,pilot_RL,29.994014874193727,
logs/sub-99/stims_session-plusneu.csv,logs/sub-99/trials_phase-learning_session-plusneu.csv,win je niks.,dat je niks wint.,(0 euro gewonnen), ,plusneu,eerste,1,practice,,,,,,90_vs_10,stims/practice_stims/obama.jpg,stims/practice_stims/clinton.jpg,f,stims/practice_stims/obama.jpg,0,0,0,0,,,,,,,,,0,6,6,0,,,,,,,,,,,,,,,f,1,1.1668841790014994,,,,,,99,keyboard,2018_okt_04_1813,pilot_RL,29.994014874193727,
logs/sub-99/stims_session-plusneu.csv,logs/sub-99/trials_phase-learning_session-plusneu.csv,win je niks.,dat je niks wint.,(0 euro gewonnen), ,plusneu,eerste,1,practice,,,,,,70_vs_30,stims/practice_stims/bush.jpg,stims/practice_stims/trump.jpg,f,stims/practice_stims/trump.jpg,0,0,0,0,,,,,,,,,0,7,7,17,,,,,,,,,,,,,,,f,1,0.833614368999406,,,,,,99,keyboard,2018_okt_04_1813,pilot_RL,29.994014874193727,
logs/sub-99/stims_session-plusneu.csv,logs/sub-99/trials_phase-learning_session-plusneu.csv,win je niks.,dat je niks wint.,(0 euro gewonnen), ,plusneu,eerste,1,practice,,,,,,70_vs_30,stims/practice_stims/trump.jpg,stims/practice_stims/bush.jpg,f,stims/practice_stims/trump.jpg,0,0,0,0,,,,,,,,,0,8,8,14,,,,,,,,,,,,,,,j,0,0.9336285040008079,,,,,,99,keyboard,2018_okt_04_1813,pilot_RL,29.994014874193727,
logs/sub-99/stims_session-plusneu.csv,logs/sub-99/trials_phase-learning_session-plusneu.csv,win je niks.,dat je niks wint.,(0 euro gewonnen), ,plusneu,eerste,1,practice,,,,,,90_vs_10,stims/practice_stims/obama.jpg,stims/practice_stims/clinton.jpg,f,stims/practice_stims/obama.jpg,0,0,0,0,,,,,,,,,0,9,9,3,,,,,,,,,,,,,,,f,1,1.3336443989974214,,,,,,99,keyboard,2018_okt_04_1813,pilot_RL,29.994014874193727,
logs/sub-99/stims_session-plusneu.csv,logs/sub-99/trials_phase-learning_session-plusneu.csv,win je niks.,dat je niks wint.,(0 euro gewonnen), ,plusneu,eerste,1,practice,,,,,,70_vs_30,stims/practice_stims/bush.jpg,stims/practice_stims/trump.jpg,f,stims/practice_stims/bush.jpg,0,0,0,0,,,,,,,,,0,10,10,15,,,,,,,,,,,,,,,f,1,2.100383335000515,,,,,,99,keyboard,2018_okt_04_1813,pilot_RL,29.994014874193727,
logs/sub-99/stims_session-plusneu.csv,logs/sub-99/trials_phase-learning_session-plusneu.csv,win je niks.,dat je niks wint.,(0 euro gewonnen), ,plusneu,eerste,1,practice,,,,,,90_vs_10,stims/practice_stims/clinton.jpg,stims/practice_stims/obama.jpg,j,stims/practice_stims/obama.jpg,0,0,0,0,,,,,,,,,0,11,11,5,,,,,,,,,,,,,,,j,1,0.8002247290023661,,,,,,99,keyboard,2018_okt_04_1813,pilot_RL,29.994014874193727,
logs/sub-99/stims_session-plusneu.csv,logs/sub-99/trials_phase-learning_session-plusneu.csv,win je niks.,dat je niks wint.,(0 euro gewonnen), ,plusneu,eerste,1,practice,,,,,,90_vs_10,stims/practice_stims/clinton.jpg,stims/practice_stims/obama.jpg,j,stims/practice_stims/obama.jpg,0,0,0,0,,,,,,,,,0,12,12,6,,,,,,,,,,,,,,,j,1,0.766917602999456,,,,,,99,keyboard,2018_okt_04_1813,pilot_RL,29.994014874193727,
logs/sub-99/stims_session-plusneu.csv,logs/sub-99/trials_phase-learning_session-plusneu.csv,win je niks.,dat je niks wint.,(0 euro gewonnen), ,plusneu,eerste,1,practice,,,,,,90_vs_10,stims/practice_stims/obama.jpg,stims/practice_stims/clinton.jpg,f,stims/practice_stims/obama.jpg,0,0,0,0,,,,,,,,,0,13,13,1,,,,,,,,,,,,,,,f,1,1.9337029310008802,,,,,,99,keyboard,2018_okt_04_1813,pilot_RL,29.994014874193727,
logs/sub-99/stims_session-plusneu.csv,logs/sub-99/trials_phase-learning_session-plusneu.csv,win je niks.,dat je niks wint.,(0 euro gewonnen), ,plusneu,eerste,1,practice,,,,,,90_vs_10,stims/practice_stims/clinton.jpg,stims/practice_stims/obama.jpg,j,stims/practice_stims/obama.jpg,0,0,0,0,,,,,,,,,0,14,14,7,,,,,,,,,,,,,,,j,1,0.7002634369964653,,,,,,99,keyboard,2018_okt_04_1813,pilot_RL,29.994014874193727,
logs/sub-99/stims_session-plusneu.csv,logs/sub-99/trials_phase-learning_session-plusneu.csv,win je niks.,dat je niks wint.,(0 euro gewonnen), ,plusneu,eerste,1,practice,,,,,,70_vs_30,stims/practice_stims/bush.jpg,stims/practice_stims/trump.jpg,j,stims/practice_stims/trump.jpg,0,0,0,0,,,,,,,,,0,15,15,19,,,,,,,,,,,,,,,f,0,1.0669142759979877,,,,,,99,keyboard,2018_okt_04_1813,pilot_RL,29.994014874193727,
logs/sub-99/stims_session-plusneu.csv,logs/sub-99/trials_phase-learning_session-plusneu.csv,win je niks.,dat je niks wint.,(0 euro gewonnen), ,plusneu,eerste,1,practice,,,,,,90_vs_10,stims/practice_stims/clinton.jpg,stims/practice_stims/obama.jpg,j,stims/practice_stims/obama.jpg,0,0,0,0,,,,,,,,,0,16,16,8,,,,,,,,,,,,,,,j,1,0.8336654779996024,,,,,,99,keyboard,2018_okt_04_1813,pilot_RL,29.994014874193727,
logs/sub-99/stims_session-plusneu.csv,logs/sub-99/trials_phase-learning_session-plusneu.csv,win je niks.,dat je niks wint.,(0 euro gewonnen), ,plusneu,eerste,1,practice,,,,,,90_vs_10,stims/practice_stims/obama.jpg,stims/practice_stims/clinton.jpg,f,stims/practice_stims/obama.jpg,0,0,0,0,,,,,,,,,0,17,17,2,,,,,,,,,,,,,,,j,0,0.6335905519990774,,,,,,99,keyboard,2018_okt_04_1813,pilot_RL,29.994014874193727,
logs/sub-99/stims_session-plusneu.csv,logs/sub-99/trials_phase-learning_session-plusneu.csv,win je niks.,dat je niks wint.,(0 euro gewonnen), ,plusneu,eerste,1,practice,,,,,,90_vs_10,stims/practice_stims/obama.jpg,stims/practice_stims/clinton.jpg,f,stims/practice_stims/obama.jpg,0,0,0,0,,,,,,,,,0,18,18,4,,,,,,,,,,,,,,,f,1,0.7002535850006097,,,,,,99,keyboard,2018_okt_04_1813,pilot_RL,29.994014874193727,
logs/sub-99/stims_session-plusneu.csv,logs/sub-99/trials_phase-learning_session-plusneu.csv,win je niks.,dat je niks wint.,(0 euro gewonnen), ,plusneu,eerste,1,practice,,,,,,70_vs_30,stims/practice_stims/trump.jpg,stims/practice_stims/bush.jpg,j,stims/practice_stims/bush.jpg,0,0,0,0,,,,,,,,,0,19,19,12,,,,,,,,,,,,,,,f,0,0.7669519020018924,,,,,,99,keyboard,2018_okt_04_1813,pilot_RL,29.994014874193727,
logs/sub-99/stims_session-plusneu.csv,logs/sub-99/trials_phase-learning_session-plusneu.csv,win je niks.,dat je niks wint.,(0 euro gewonnen), ,plusneu,eerste,1,learning,,,,,,80_vs_20,logs/sub-99/anim-neutral_id-1266_gender-male_rewardprob-20_session-plusneu.png,logs/sub-99/anim-neutral_id-1280_gender-male_rewardprob-80_session-plusneu.png,j,,0,0,0,0,,,,,,,,,,,,,0,0,0,32,,,,,,,,,,,,,,f,0,1.666954567997891,,,99,keyboard,2018_okt_04_1813,pilot_RL,29.994014874193727,
logs/sub-99/stims_session-plusneu.csv,logs/sub-99/trials_phase-learning_session-plusneu.csv,win je niks.,dat je niks wint.,(0 euro gewonnen), ,plusneu,eerste,1,learning,,,,,,80_vs_20,logs/sub-99/anim-neutral_id-1280_gender-male_rewardprob-80_session-plusneu.png,logs/sub-99/anim-neutral_id-1266_gender-male_rewardprob-20_session-plusneu.png,f,,0,0,0,0,,,,,,,,,,,,,0,1,1,15,,,,,,,,,,,,,,f,1,1.2003106449992629,,,99,keyboard,2018_okt_04_1813,pilot_RL,29.994014874193727,
logs/sub-99/stims_session-plusneu.csv,logs/sub-99/trials_phase-learning_session-plusneu.csv,win je niks.,dat je niks wint.,(0 euro gewonnen), ,plusneu,eerste,1,learning,,,,,,64_vs_36,logs/sub-99/anim-neutral_id-1318_gender-male_rewardprob-36_session-plusneu.png,logs/sub-99/anim-neutral_id-1315_gender-male_rewardprob-64_session-plusneu.png,f,,0,0,0,0,,,,,,,,,,,,,0,2,2,75,,,,,,,,,,,,,,j,0,1.3002860970009351,,,99,keyboard,2018_okt_04_1813,pilot_RL,29.994014874193727,
logs/sub-99/stims_session-plusneu.csv,logs/sub-99/trials_phase-learning_session-plusneu.csv,win je niks.,dat je niks wint.,(0 euro gewonnen), ,plusneu,eerste,1,learning,,,,,,64_vs_36,logs/sub-99/anim-neutral_id-1315_gender-male_rewardprob-64_session-plusneu.png,logs/sub-99/anim-neutral_id-1318_gender-male_rewardprob-36_session-plusneu.png,f,,0,0,0,0,,,,,,,,,,,,,0,3,3,57,,,,,,,,,,,,,,j,0,1.7002393220027443,,,99,keyboard,2018_okt_04_1813,pilot_RL,29.994014874193727,
logs/sub-99/stims_session-plusneu.csv,logs/sub-99/trials_phase-learning_session-plusneu.csv,win je niks.,dat je niks wint.,(0 euro gewonnen), ,plusneu,eerste,1,learning,,,,,,80_vs_20,logs/sub-99/anim-neutral_id-1266_gender-male_rewardprob-20_session-plusneu.png,logs/sub-99/anim-neutral_id-1280_gender-male_rewardprob-80_session-plusneu.png,f,,0,0,0,0,,,,,,,,,,,,,0,4,4,25,,,,,,,,,,,,,,j,0,1.1669488519983133,,,99,keyboard,2018_okt_04_1813,pilot_RL,29.994014874193727,
logs/sub-99/stims_session-plusneu.csv,logs/sub-99/trials_phase-learning_session-plusneu.csv,win je niks.,dat je niks wint.,(0 euro gewonnen), ,plusneu,eerste,1,learning,,,,,,80_vs_20,logs/sub-99/anim-neutral_id-1266_gender-male_rewardprob-20_session-plusneu.png,logs/sub-99/anim-neutral_id-1280_gender-male_rewardprob-80_session-plusneu.png,j,,0,0,0,0,,,,,,,,,,,,,0,5,5,37,,,,,,,,,,,,,,f,0,1.2003393400009372,,,99,keyboard,2018_okt_04_1813,pilot_RL,29.994014874193727,
logs/sub-99/stims_session-plusneu.csv,logs/sub-99/trials_phase-learning_session-plusneu.csv,win je niks.,dat je niks wint.,(0 euro gewonnen), ,plusneu,eerste,1,learning,,,,,,80_vs_20,logs/sub-99/anim-neutral_id-1280_gender-male_rewardprob-80_session-plusneu.png,logs/sub-99/anim-neutral_id-1266_gender-male_rewardprob-20_session-plusneu.png,f,,0,0,0,0,,,,,,,,,,,,,0,6,6,19,,,,,,,,,,,,,,f,1,0.7002236110020021,,,99,keyboard,2018_okt_04_1813,pilot_RL,29.994014874193727,
logs/sub-99/stims_session-plusneu.csv,logs/sub-99/trials_phase-learning_session-plusneu.csv,win je niks.,dat je niks wint.,(0 euro gewonnen), ,plusneu,eerste,1,learning,,,,,,80_vs_20,logs/sub-99/anim-neutral_id-1266_gender-male_rewardprob-20_session-plusneu.png,logs/sub-99/anim-neutral_id-1280_gender-male_rewardprob-80_session-plusneu.png,j,,0,0,0,0,,,,,,,,,,,,,0,7,7,49,,,,,,,,,,,,,,j,1,1.1335960450014682,,,99,keyboard,2018_okt_04_1813,pilot_RL,29.994014874193727,
logs/sub-99/stims_session-plusneu.csv,logs/sub-99/trials_phase-learning_session-plusneu.csv,win je niks.,dat je niks wint.,(0 euro gewonnen), ,plusneu,eerste,1,learning,,,,,,80_vs_20,logs/sub-99/anim-neutral_id-1266_gender-male_rewardprob-20_session-plusneu.png,logs/sub-99/anim-neutral_id-1280_gender-male_rewardprob-80_session-plusneu.png,j,,0,0,0,0,,,,,,,,,,,,,0,8,8,43,,,,,,,,,,,,,,j,1,0.9669554360007169,,,99,keyboard,2018_okt_04_1813,pilot_RL,29.994014874193727,
logs/sub-99/stims_session-plusneu.csv,logs/sub-99/trials_phase-learning_session-plusneu.csv,win je niks.,dat je niks wint.,(0 euro gewonnen), ,plusneu,eerste,1,learning,,,,,,80_vs_20,logs/sub-99/anim-neutral_id-1266_gender-male_rewardprob-20_session-plusneu.png,logs/sub-99/anim-neutral_id-1280_gender-male_rewardprob-80_session-plusneu.png,j,,0,0,0,0,,,,,,,,,,,,,0,9,9,45,,,,,,,,,,,,,,j,1,0.9337821920016722,,,99,keyboard,2018_okt_04_1813,pilot_RL,29.994014874193727,
logs/sub-99/stims_session-plusneu.csv,logs/sub-99/trials_phase-learning_session-plusneu.csv,win je niks.,dat je niks wint.,(0 euro gewonnen), ,plusneu,eerste,1,learning,,,,,,64_vs_36,logs/sub-99/anim-neutral_id-1318_gender-male_rewardprob-36_session-plusneu.png,logs/sub-99/anim-neutral_id-1315_gender-male_rewardprob-64_session-plusneu.png,j,,0,0,0,0,,,,,,,,,,,,,0,10,10,85,,,,,,,,,,,,,,j,1,1.4002891890013416,,,99,keyboard,2018_okt_04_1813,pilot_RL,29.994014874193727,
logs/sub-99/stims_session-plusneu.csv,logs/sub-99/trials_phase-learning_session-plusneu.csv,win je niks.,dat je niks wint.,(0 euro gewonnen), ,plusneu,eerste,1,learning,,,,,,80_vs_20,logs/sub-99/anim-neutral_id-1266_gender-male_rewardprob-20_session-plusneu.png,logs/sub-99/anim-neutral_id-1280_gender-male_rewardprob-80_session-plusneu.png,j,,0,0,0,0,,,,,,,,,,,,,0,11,11,47,,,,,,,,,,,,,,j,1,1.2672544749984809,,,99,keyboard,2018_okt_04_1813,pilot_RL,29.994014874193727,
logs/sub-99/stims_session-plusneu.csv,logs/sub-99/trials_phase-learning_session-plusneu.csv,win je niks.,dat je niks wint.,(0 euro gewonnen), ,plusneu,eerste,1,learning,,,,,,64_vs_36,logs/sub-99/anim-neutral_id-1315_gender-male_rewardprob-64_session-plusneu.png,logs/sub-99/anim-neutral_id-1318_gender-male_rewardprob-36_session-plusneu.png,f,,0,0,0,0,,,,,,,,,,,,,0,12,12,56,,,,,,,,,,,,,,f,1,1.700253408998833,,,99,keyboard,2018_okt_04_1813,pilot_RL,29.994014874193727,
logs/sub-99/stims_session-plusneu.csv,logs/sub-99/trials_phase-learning_session-plusneu.csv,win je niks.,dat je niks wint.,(0 euro gewonnen), ,plusneu,eerste,1,learning,,,,,,64_vs_36,logs/sub-99/anim-neutral_id-1318_gender-male_rewardprob-36_session-plusneu.png,logs/sub-99/anim-neutral_id-1315_gender-male_rewardprob-64_session-plusneu.png,j,,0,0,0,0,,,,,,,,,,,,,0,13,13,94,,,,,,,,,,,,,,j,1,1.0336170890004723,,,99,keyboard,2018_okt_04_1813,pilot_RL,29.994014874193727,
logs/sub-99/stims_session-plusneu.csv,logs/sub-99/trials_phase-learning_session-plusneu.csv,win je niks.,dat je niks wint.,(0 euro gewonnen), ,plusneu,eerste,1,learning,,,,,,80_vs_20,logs/sub-99/anim-neutral_id-1280_gender-male_rewardprob-80_session-plusneu.png,logs/sub-99/anim-neutral_id-1266_gender-male_rewardprob-20_session-plusneu.png,f,,0,0,0,0,,,,,,,,,,,,,0,14,14,0,,,,,,,,,,,,,,f,1,1.233603494001727,,,99,keyboard,2018_okt_04_1813,pilot_RL,29.994014874193727,
logs/sub-99/stims_session-plusneu.csv,logs/sub-99/trials_phase-learning_session-plusneu.csv,win je niks.,dat je niks wint.,(0 euro gewonnen), ,plusneu,eerste,1,learning,,,,,,80_vs_20,logs/sub-99/anim-neutral_id-1280_gender-male_rewardprob-80_session-plusneu.png,logs/sub-99/anim-neutral_id-1266_gender-male_rewardprob-20_session-plusneu.png,f,,0,0,0,0,,,,,,,,,,,,,0,15,15,6,,,,,,,,,,,,,,f,1,0.6669602590009163,,,99,keyboard,2018_okt_04_1813,pilot_RL,29.994014874193727,
logs/sub-99/stims_session-plusneu.csv,logs/sub-99/trials_phase-learning_session-plusneu.csv,win je niks.,dat je niks wint.,(0 euro gewonnen), ,plusneu,eerste,1,learning,,,,,,80_vs_20,logs/sub-99/anim-neutral_id-1266_gender-male_rewardprob-20_session-plusneu.png,logs/sub-99/anim-neutral_id-1280_gender-male_rewardprob-80_session-plusneu.png,j,,0,0,0,0,,,,,,,,,,,,,0,16,16,42,,,,,,,,,,,,,,j,1,1.2003192949996446,,,99,keyboard,2018_okt_04_1813,pilot_RL,29.994014874193727,
logs/sub-99/stims_session-plusneu.csv,logs/sub-99/trials_phase-learning_session-plusneu.csv,win je niks.,dat je niks wint.,(0 euro gewonnen), ,plusneu,eerste,1,learning,,,,,,80_vs_20,logs/sub-99/anim-neutral_id-1266_gender-male_rewardprob-20_session-plusneu.png,logs/sub-99/anim-neutral_id-1280_gender-male_rewardprob-80_session-plusneu.png,j,,0,0,0,0,,,,,,,,,,,,,0,17,17,44,,,,,,,,,,,,,,j,1,1.3003740059975826,,,99,keyboard,2018_okt_04_1813,pilot_RL,29.994014874193727,
logs/sub-99/stims_session-plusneu.csv,logs/sub-99/trials_phase-learning_session-plusneu.csv,win je niks.,dat je niks wint.,(0 euro gewonnen), ,plusneu,eerste,1,learning,,,,,,64_vs_36,logs/sub-99/anim-neutral_id-1318_gender-male_rewardprob-36_session-plusneu.png,logs/sub-99/anim-neutral_id-1315_gender-male_rewardprob-64_session-plusneu.png,j,,0,0,0,0,,,,,,,,,,,,,0,18,18,89,,,,,,,,,,,,,,j,1,2.3336396320009953,,,99,keyboard,2018_okt_04_1813,pilot_RL,29.994014874193727,
logs/sub-99/stims_session-plusneu.csv,logs/sub-99/trials_phase-learning_session-plusneu.csv,win je niks.,dat je niks wint.,(0 euro gewonnen), ,plusneu,eerste,1,learning,,,,,,64_vs_36,logs/sub-99/anim-neutral_id-1318_gender-male_rewardprob-36_session-plusneu.png,logs/sub-99/anim-neutral_id-1315_gender-male_rewardprob-64_session-plusneu.png,f,,0,0,0,0,,,,,,,,,,,,,0,19,19,83,,,,,,,,,,,,,,j,0,0.8336004760021751,,,99,keyboard,2018_okt_04_1813,pilot_RL,29.994014874193727,
logs/sub-99/stims_session-plusneu.csv,logs/sub-99/trials_phase-learning_session-plusneu.csv,win je niks.,dat je niks wint.,(0 euro gewonnen), ,plusneu,eerste,1,learning,,,,,,64_vs_36,logs/sub-99/anim-neutral_id-1315_gender-male_rewardprob-64_session-plusneu.png,logs/sub-99/anim-neutral_id-1318_gender-male_rewardprob-36_session-plusneu.png,f,,0,0,0,0,,,,,,,,,,,,,0,20,20,58,,,,,,,,,,,,,,j,0,1.7336039280016848,,,99,keyboard,2018_okt_04_1813,pilot_RL,29.994014874193727,
logs/sub-99/stims_session-plusneu.csv,logs/sub-99/trials_phase-learning_session-plusneu.csv,win je niks.,dat je niks wint.,(0 euro gewonnen), ,plusneu,eerste,1,learning,,,,,,80_vs_20,logs/sub-99/anim-neutral_id-1280_gender-male_rewardprob-80_session-plusneu.png,logs/sub-99/anim-neutral_id-1266_gender-male_rewardprob-20_session-plusneu.png,f,,0,0,0,0,,,,,,,,,,,,,0,21,21,8,,,,,,,,,,,,,,f,1,1.8336446390021592,,,99,keyboard,2018_okt_04_1813,pilot_RL,29.994014874193727,
logs/sub-99/stims_session-plusneu.csv,logs/sub-99/trials_phase-learning_session-plusneu.csv,win je niks.,dat je niks wint.,(0 euro gewonnen), ,plusneu,eerste,1,learning,,,,,,64_vs_36,logs/sub-99/anim-neutral_id-1315_gender-male_rewardprob-64_session-plusneu.png,logs/sub-99/anim-neutral_id-1318_gender-male_rewardprob-36_session-plusneu.png,f,,0,0,0,0,,,,,,,,,,,,,0,22,22,64,,,,,,,,,,,,,,j,0,1.5669590260004043,,,99,keyboard,2018_okt_04_1813,pilot_RL,29.994014874193727,
logs/sub-99/stims_session-plusneu.csv,logs/sub-99/trials_phase-learning_session-plusneu.csv,win je niks.,dat je niks wint.,(0 euro gewonnen), ,plusneu,eerste,1,learning,,,,,,80_vs_20,logs/sub-99/anim-neutral_id-1280_gender-male_rewardprob-80_session-plusneu.png,logs/sub-99/anim-neutral_id-1266_gender-male_rewardprob-20_session-plusneu.png,f,,0,0,0,0,,,,,,,,,,,,,0,23,23,16,,,,,,,,,,,,,,f,1,1.5003028959981748,,,99,keyboard,2018_okt_04_1813,pilot_RL,29.994014874193727,
logs/sub-99/stims_session-plusneu.csv,logs/sub-99/trials_phase-learning_session-plusneu.csv,win je niks.,dat je niks wint.,(0 euro gewonnen), ,plusneu,eerste,1,learning,,,,,,64_vs_36,logs/sub-99/anim-neutral_id-1318_gender-male_rewardprob-36_session-plusneu.png,logs/sub-99/anim-neutral_id-1315_gender-male_rewardprob-64_session-plusneu.png,f,,0,0,0,0,,,,,,,,,,,,,0,24,24,76,,,,,,,,,,,,,,j,0,1.8004275960011,,,99,keyboard,2018_okt_04_1813,pilot_RL,29.994014874193727,
logs/sub-99/stims_session-plusneu.csv,logs/sub-99/trials_phase-learning_session-plusneu.csv,win je niks.,dat je niks wint.,(0 euro gewonnen), ,plusneu,eerste,1,learning,,,,,,64_vs_36,logs/sub-99/anim-neutral_id-1315_gender-male_rewardprob-64_session-plusneu.png,logs/sub-99/anim-neutral_id-1318_gender-male_rewardprob-36_session-plusneu.png,j,,0,0,0,0,,,,,,,,,,,,,0,25,25,69,,,,,,,,,,,,,,j,1,1.8336335309977585,,,99,keyboard,2018_okt_04_1813,pilot_RL,29.994014874193727,
logs/sub-99/stims_session-plusneu.csv,logs/sub-99/trials_phase-learning_session-plusneu.csv,win je niks.,dat je niks wint.,(0 euro gewonnen), ,plusneu,eerste,1,learning,,,,,,64_vs_36,logs/sub-99/anim-neutral_id-1318_gender-male_rewardprob-36_session-plusneu.png,logs/sub-99/anim-neutral_id-1315_gender-male_rewardprob-64_session-plusneu.png,f,,0,0,0,0,,,,,,,,,,,,,0,26,26,79,,,,,,,,,,,,,,j,0,1.0003199289967597,,,99,keyboard,2018_okt_04_1813,pilot_RL,29.994014874193727,
logs/sub-99/stims_session-plusneu.csv,logs/sub-99/trials_phase-learning_session-plusneu.csv,win je niks.,dat je niks wint.,(0 euro gewonnen), ,plusneu,eerste,1,learning,,,,,,80_vs_20,logs/sub-99/anim-neutral_id-1266_gender-male_rewardprob-20_session-plusneu.png,logs/sub-99/anim-neutral_id-1280_gender-male_rewardprob-80_session-plusneu.png,j,,0,0,0,0,,,,,,,,,,,,,0,27,27,46,,,,,,,,,,,,,,j,1,1.1670262410007126,,,99,keyboard,2018_okt_04_1813,pilot_RL,29.994014874193727,
logs/sub-99/stims_session-plusneu.csv,logs/sub-99/trials_phase-learning_session-plusneu.csv,win je niks.,dat je niks wint.,(0 euro gewonnen), ,plusneu,eerste,1,learning,,,,,,80_vs_20,logs/sub-99/anim-neutral_id-1266_gender-male_rewardprob-20_session-plusneu.png,logs/sub-99/anim-neutral_id-1280_gender-male_rewardprob-80_session-plusneu.png,j,,0,0,0,0,,,,,,,,,,,,,0,28,28,38,,,,,,,,,,,,,,j,1,0.6669239090006158,,,99,keyboard,2018_okt_04_1813,pilot_RL,29.994014874193727,
logs/sub-99/stims_session-plusneu.csv,logs/sub-99/trials_phase-learning_session-plusneu.csv,win je niks.,dat je niks wint.,(0 euro gewonnen), ,plusneu,eerste,1,learning,,,,,,80_vs_20,logs/sub-99/anim-neutral_id-1266_gender-male_rewardprob-20_session-plusneu.png,logs/sub-99/anim-neutral_id-1280_gender-male_rewardprob-80_session-plusneu.png,j,,0,0,0,0,,,,,,,,,,,,,0,29,29,39,,,,,,,,,,,,,,j,1,1.8669368999981089,,,99,keyboard,2018_okt_04_1813,pilot_RL,29.994014874193727,
logs/sub-99/stims_session-plusneu.csv,logs/sub-99/trials_phase-learning_session-plusneu.csv,win je niks.,dat je niks wint.,(0 euro gewonnen), ,plusneu,eerste,1,learning,,,,,,80_vs_20,logs/sub-99/anim-neutral_id-1280_gender-male_rewardprob-80_session-plusneu.png,logs/sub-99/anim-neutral_id-1266_gender-male_rewardprob-20_session-plusneu.png,f,,0,0,0,0,,,,,,,,,,,,,0,30,30,17,,,,,,,,,,,,,,j,0,0.7668533030009712,,,99,keyboard,2018_okt_04_1813,pilot_RL,29.994014874193727,
logs/sub-99/stims_session-plusneu.csv,logs/sub-99/trials_phase-learning_session-plusneu.csv,win je niks.,dat je niks wint.,(0 euro gewonnen), ,plusneu,eerste,1,learning,,,,,,80_vs_20,logs/sub-99/anim-neutral_id-1280_gender-male_rewardprob-80_session-plusneu.png,logs/sub-99/anim-neutral_id-1266_gender-male_rewardprob-20_session-plusneu.png,f,,0,0,0,0,,,,,,,,,,,,,0,31,31,4,,,,,,,,,,,,,,f,1,1.3335996700006945,,,99,keyboard,2018_okt_04_1813,pilot_RL,29.994014874193727,
logs/sub-99/stims_session-plusneu.csv,logs/sub-99/trials_phase-learning_session-plusneu.csv,win je niks.,dat je niks wint.,(0 euro gewonnen), ,plusneu,eerste,1,learning,,,,,,80_vs_20,logs/sub-99/anim-neutral_id-1280_gender-male_rewardprob-80_session-plusneu.png,logs/sub-99/anim-neutral_id-1266_gender-male_rewardprob-20_session-plusneu.png,f,,0,0,0,0,,,,,,,,,,,,,0,32,32,7,,,,,,,,,,,,,,f,1,0.7669068069990317,,,99,keyboard,2018_okt_04_1813,pilot_RL,29.994014874193727,
logs/sub-99/stims_session-plusneu.csv,logs/sub-99/trials_phase-learning_session-plusneu.csv,win je niks.,dat je niks wint.,(0 euro gewonnen), ,plusneu,eerste,1,learning,,,,,,80_vs_20,logs/sub-99/anim-neutral_id-1280_gender-male_rewardprob-80_session-plusneu.png,logs/sub-99/anim-neutral_id-1266_gender-male_rewardprob-20_session-plusneu.png,j,,0,0,0,0,,,,,,,,,,,,,0,33,33,22,,,,,,,,,,,,,,f,0,0.9667298840031435,,,99,keyboard,2018_okt_04_1813,pilot_RL,29.994014874193727,
logs/sub-99/stims_session-plusneu.csv,logs/sub-99/trials_phase-learning_session-plusneu.csv,win je niks.,dat je niks wint.,(0 euro gewonnen), ,plusneu,eerste,1,learning,,,,,,80_vs_20,logs/sub-99/anim-neutral_id-1266_gender-male_rewardprob-20_session-plusneu.png,logs/sub-99/anim-neutral_id-1280_gender-male_rewardprob-80_session-plusneu.png,j,,0,0,0,0,,,,,,,,,,,,,0,34,34,35,,,,,,,,,,,,,,f,0,1.6334760030003963,,,99,keyboard,2018_okt_04_1813,pilot_RL,29.994014874193727,
logs/sub-99/stims_session-plusneu.csv,logs/sub-99/trials_phase-learning_session-plusneu.csv,win je niks.,dat je niks wint.,(0 euro gewonnen), ,plusneu,eerste,1,learning,,,,,,64_vs_36,logs/sub-99/anim-neutral_id-1318_gender-male_rewardprob-36_session-plusneu.png,logs/sub-99/anim-neutral_id-1315_gender-male_rewardprob-64_session-plusneu.png,j,,0,0,0,0,,,,,,,,,,,,,0,35,35,93,,,,,,,,,,,,,,j,1,1.8337640569989162,,,99,keyboard,2018_okt_04_1813,pilot_RL,29.994014874193727,
logs/sub-99/stims_session-plusneu.csv,logs/sub-99/trials_phase-learning_session-plusneu.csv,win je niks.,dat je niks wint.,(0 euro gewonnen), ,plusneu,eerste,1,learning,,,,,,64_vs_36,logs/sub-99/anim-neutral_id-1315_gender-male_rewardprob-64_session-plusneu.png,logs/sub-99/anim-neutral_id-1318_gender-male_rewardprob-36_session-plusneu.png,f,,0,0,0,0,,,,,,,,,,,,,0,36,36,63,,,,,,,,,,,,,,j,0,0.9003658410001663,,,99,keyboard,2018_okt_04_1813,pilot_RL,29.994014874193727,
logs/sub-99/stims_session-plusneu.csv,logs/sub-99/trials_phase-learning_session-plusneu.csv,win je niks.,dat je niks wint.,(0 euro gewonnen), ,plusneu,eerste,1,learning,,,,,,80_vs_20,logs/sub-99/anim-neutral_id-1266_gender-male_rewardprob-20_session-plusneu.png,logs/sub-99/anim-neutral_id-1280_gender-male_rewardprob-80_session-plusneu.png,j,,0,0,0,0,,,,,,,,,,,,,0,37,37,40,,,,,,,,,,,,,,f,0,1.83366326399846,,,99,keyboard,2018_okt_04_1813,pilot_RL,29.994014874193727,
logs/sub-99/stims_session-plusneu.csv,logs/sub-99/trials_phase-learning_session-plusneu.csv,win je niks.,dat je niks wint.,(0 euro gewonnen), ,plusneu,eerste,1,learning,,,,,,64_vs_36,logs/sub-99/anim-neutral_id-1315_gender-male_rewardprob-64_session-plusneu.png,logs/sub-99/anim-neutral_id-1318_gender-male_rewardprob-36_session-plusneu.png,j,,0,0,0,0,,,,,,,,,,,,,0,38,38,68,,,,,,,,,,,,,,j,1,1.8669768100007786,,,99,keyboard,2018_okt_04_1813,pilot_RL,29.994014874193727,
logs/sub-99/stims_session-plusneu.csv,logs/sub-99/trials_phase-learning_session-plusneu.csv,win je niks.,dat je niks wint.,(0 euro gewonnen), ,plusneu,eerste,1,learning,,,,,,64_vs_36,logs/sub-99/anim-neutral_id-1315_gender-male_rewardprob-64_session-plusneu.png,logs/sub-99/anim-neutral_id-1318_gender-male_rewardprob-36_session-plusneu.png,f,,0,0,0,0,,,,,,,,,,,,,0,39,39,59,,,,,,,,,,,,,,f,1,0.7004103590006707,,,99,keyboard,2018_okt_04_1813,pilot_RL,29.994014874193727,
logs/sub-99/stims_session-plusneu.csv,logs/sub-99/trials_phase-learning_session-plusneu.csv,win je niks.,dat je niks wint.,(0 euro gewonnen), ,plusneu,eerste,1,learning,,,,,,64_vs_36,logs/sub-99/anim-neutral_id-1318_gender-male_rewardprob-36_session-plusneu.png,logs/sub-99/anim-neutral_id-1315_gender-male_rewardprob-64_session-plusneu.png,j,,0,0,0,0,,,,,,,,,,,,,0,40,40,90,,,,,,,,,,,,,,j,1,1.033619985999394,,,99,keyboard,2018_okt_04_1813,pilot_RL,29.994014874193727,
logs/sub-99/stims_session-plusneu.csv,logs/sub-99/trials_phase-learning_session-plusneu.csv,win je niks.,dat je niks wint.,(0 euro gewonnen), ,plusneu,eerste,1,learning,,,,,,64_vs_36,logs/sub-99/anim-neutral_id-1318_gender-male_rewardprob-36_session-plusneu.png,logs/sub-99/anim-neutral_id-1315_gender-male_rewardprob-64_session-plusneu.png,j,,0,0,0,0,,,,,,,,,,,,,0,41,41,88,,,,,,,,,,,,,,j,1,0.8003120370012766,,,99,keyboard,2018_okt_04_1813,pilot_RL,29.994014874193727,
logs/sub-99/stims_session-plusneu.csv,logs/sub-99/trials_phase-learning_session-plusneu.csv,win je niks.,dat je niks wint.,(0 euro gewonnen), ,plusneu,eerste,1,learning,,,,,,80_vs_20,logs/sub-99/anim-neutral_id-1266_gender-male_rewardprob-20_session-plusneu.png,logs/sub-99/anim-neutral_id-1280_gender-male_rewardprob-80_session-plusneu.png,j,,0,0,0,0,,,,,,,,,,,,,0,42,42,31,,,,,,,,,,,,,,j,1,1.8336321290007618,,,99,keyboard,2018_okt_04_1813,pilot_RL,29.994014874193727,
logs/sub-99/stims_session-plusneu.csv,logs/sub-99/trials_phase-learning_session-plusneu.csv,win je niks.,dat je niks wint.,(0 euro gewonnen), ,plusneu,eerste,1,learning,,,,,,64_vs_36,logs/sub-99/anim-neutral_id-1318_gender-male_rewardprob-36_session-plusneu.png,logs/sub-99/anim-neutral_id-1315_gender-male_rewardprob-64_session-plusneu.png,j,,0,0,0,0,,,,,,,,,,,,,0,43,43,98,,,,,,,,,,,,,,j,1,0.8670143710005505,,,99,keyboard,2018_okt_04_1813,pilot_RL,29.994014874193727,
logs/sub-99/stims_session-plusneu.csv,logs/sub-99/trials_phase-learning_session-plusneu.csv,win je niks.,dat je niks wint.,(0 euro gewonnen), ,plusneu,eerste,1,learning,,,,,,64_vs_36,logs/sub-99/anim-neutral_id-1315_gender-male_rewardprob-64_session-plusneu.png,logs/sub-99/anim-neutral_id-1318_gender-male_rewardprob-36_session-plusneu.png,f,,0,0,0,0,,,,,,,,,,,,,0,44,44,55,,,,,,,,,,,,,,j,0,1.0669373189994076,,,99,keyboard,2018_okt_04_1813,pilot_RL,29.994014874193727,
logs/sub-99/stims_session-plusneu.csv,logs/sub-99/trials_phase-learning_session-plusneu.csv,win je niks.,dat je niks wint.,(0 euro gewonnen), ,plusneu,eerste,1,learning,,,,,,64_vs_36,logs/sub-99/anim-neutral_id-1315_gender-male_rewardprob-64_session-plusneu.png,logs/sub-99/anim-neutral_id-1318_gender-male_rewardprob-36_session-plusneu.png,j,,0,0,0,0,,,,,,,,,,,,,0,45,45,71,,,,,,,,,,,,,,j,1,0.8667369920003694,,,99,keyboard,2018_okt_04_1813,pilot_RL,29.994014874193727,
logs/sub-99/stims_session-plusneu.csv,logs/sub-99/trials_phase-learning_session-plusneu.csv,win je niks.,dat je niks wint.,(0 euro gewonnen), ,plusneu,eerste,1,learning,,,,,,64_vs_36,logs/sub-99/anim-neutral_id-1315_gender-male_rewardprob-64_session-plusneu.png,logs/sub-99/anim-neutral_id-1318_gender-male_rewardprob-36_session-plusneu.png,f,,0,0,0,0,,,,,,,,,,,,,0,46,46,61,,,,,,,,,,,,,,f,1,1.2669644559973676,,,99,keyboard,2018_okt_04_1813,pilot_RL,29.994014874193727,
logs/sub-99/stims_session-plusneu.csv,logs/sub-99/trials_phase-learning_session-plusneu.csv,win je niks.,dat je niks wint.,(0 euro gewonnen), ,plusneu,eerste,1,learning,,,,,,80_vs_20,logs/sub-99/anim-neutral_id-1280_gender-male_rewardprob-80_session-plusneu.png,logs/sub-99/anim-neutral_id-1266_gender-male_rewardprob-20_session-plusneu.png,f,,0,0,0,0,,,,,,,,,,,,,0,47,47,3,,,,,,,,,,,,,,f,1,1.1669821790019341,,,99,keyboard,2018_okt_04_1813,pilot_RL,29.994014874193727,
logs/sub-99/stims_session-plusneu.csv,logs/sub-99/trials_phase-learning_session-plusneu.csv,win je niks.,dat je niks wint.,(0 euro gewonnen), ,plusneu,eerste,1,learning,,,,,,64_vs_36,logs/sub-99/anim-neutral_id-1318_gender-male_rewardprob-36_session-plusneu.png,logs/sub-99/anim-neutral_id-1315_gender-male_rewardprob-64_session-plusneu.png,f,,0,0,0,0,,,,,,,,,,,,,0,48,48,80,,,,,,,,,,,,,,j,0,1.133641420998174,,,99,keyboard,2018_okt_04_1813,pilot_RL,29.994014874193727,
logs/sub-99/stims_session-plusneu.csv,logs/sub-99/trials_phase-learning_session-plusneu.csv,win je niks.,dat je niks wint.,(0 euro gewonnen), ,plusneu,eerste,1,learning,,,,,,64_vs_36,logs/sub-99/anim-neutral_id-1318_gender-male_rewardprob-36_session-plusneu.png,logs/sub-99/anim-neutral_id-1315_gender-male_rewardprob-64_session-plusneu.png,j,,0,0,0,0,,,,,,,,,,,,,0,49,49,99,,,,,,,,,,,,,,f,0,0.8002773980006168,,,99,keyboard,2018_okt_04_1813,pilot_RL,29.994014874193727,
logs/sub-99/stims_session-plusneu.csv,logs/sub-99/trials_phase-learning_session-plusneu.csv,win je niks.,dat je niks wint.,(0 euro gewonnen), ,plusneu,eerste,1,learning,,,,,,80_vs_20,logs/sub-99/anim-neutral_id-1280_gender-male_rewardprob-80_session-plusneu.png,logs/sub-99/anim-neutral_id-1266_gender-male_rewardprob-20_session-plusneu.png,f,,0,0,0,0,,,,,,,,,,,,,0,50,50,2,,,,,,,,,,,,,,f,1,1.0336021149996668,,,99,keyboard,2018_okt_04_1813,pilot_RL,29.994014874193727,
logs/sub-99/stims_session-plusneu.csv,logs/sub-99/trials_phase-learning_session-plusneu.csv,win je niks.,dat je niks wint.,(0 euro gewonnen), ,plusneu,eerste,1,learning,,,,,,64_vs_36,logs/sub-99/anim-neutral_id-1315_gender-male_rewardprob-64_session-plusneu.png,logs/sub-99/anim-neutral_id-1318_gender-male_rewardprob-36_session-plusneu.png,j,,0,0,0,0,,,,,,,,,,,,,0,51,51,67,,,,,,,,,,,,,,j,1,0.700293652000255,,,99,keyboard,2018_okt_04_1813,pilot_RL,29.994014874193727,
logs/sub-99/stims_session-plusneu.csv,logs/sub-99/trials_phase-learning_session-plusneu.csv,win je niks.,dat je niks wint.,(0 euro gewonnen), ,plusneu,eerste,1,learning,,,,,,80_vs_20,logs/sub-99/anim-neutral_id-1280_gender-male_rewardprob-80_session-plusneu.png,logs/sub-99/anim-neutral_id-1266_gender-male_rewardprob-20_session-plusneu.png,f,,0,0,0,0,,,,,,,,,,,,,0,52,52,9,,,,,,,,,,,,,,f,1,0.9336207290034508,,,99,keyboard,2018_okt_04_1813,pilot_RL,29.994014874193727,
logs/sub-99/stims_session-plusneu.csv,logs/sub-99/trials_phase-learning_session-plusneu.csv,win je niks.,dat je niks wint.,(0 euro gewonnen), ,plusneu,eerste,1,learning,,,,,,80_vs_20,logs/sub-99/anim-neutral_id-1266_gender-male_rewardprob-20_session-plusneu.png,logs/sub-99/anim-neutral_id-1280_gender-male_rewardprob-80_session-plusneu.png,j,,0,0,0,0,,,,,,,,,,,,,0,53,53,30,,,,,,,,,,,,,,j,1,0.7001371719998133,,,99,keyboard,2018_okt_04_1813,pilot_RL,29.994014874193727,
logs/sub-99/stims_session-plusneu.csv,logs/sub-99/trials_phase-learning_session-plusneu.csv,win je niks.,dat je niks wint.,(0 euro gewonnen), ,plusneu,eerste,1,learning,,,,,,64_vs_36,logs/sub-99/anim-neutral_id-1318_gender-male_rewardprob-36_session-plusneu.png,logs/sub-99/anim-neutral_id-1315_gender-male_rewardprob-64_session-plusneu.png,j,,0,0,0,0,,,,,,,,,,,,,0,54,54,95,,,,,,,,,,,,,,f,0,1.5337222140005906,,,99,keyboard,2018_okt_04_1813,pilot_RL,29.994014874193727,
logs/sub-99/stims_session-plusneu.csv,logs/sub-99/trials_phase-learning_session-plusneu.csv,win je niks.,dat je niks wint.,(0 euro gewonnen), ,plusneu,eerste,1,learning,,,,,,64_vs_36,logs/sub-99/anim-neutral_id-1315_gender-male_rewardprob-64_session-plusneu.png,logs/sub-99/anim-neutral_id-1318_gender-male_rewardprob-36_session-plusneu.png,j,,0,0,0,0,,,,,,,,,,,,,0,55,55,70,,,,,,,,,,,,,,j,1,0.866905365997809,,,99,keyboard,2018_okt_04_1813,pilot_RL,29.994014874193727,
logs/sub-99/stims_session-plusneu.csv,logs/sub-99/trials_phase-learning_session-plusneu.csv,win je niks.,dat je niks wint.,(0 euro gewonnen), ,plusneu,eerste,1,learning,,,,,,64_vs_36,logs/sub-99/anim-neutral_id-1315_gender-male_rewardprob-64_session-plusneu.png,logs/sub-99/anim-neutral_id-1318_gender-male_rewardprob-36_session-plusneu.png,f,,0,0,0,0,,,,,,,,,,,,,0,56,56,53,,,,,,,,,,,,,,j,0,0.6335924599989085,,,99,keyboard,2018_okt_04_1813,pilot_RL,29.994014874193727,
logs/sub-99/stims_session-plusneu.csv,logs/sub-99/trials_phase-learning_session-plusneu.csv,win je niks.,dat je niks wint.,(0 euro gewonnen), ,plusneu,eerste,1,learning,,,,,,64_vs_36,logs/sub-99/anim-neutral_id-1318_gender-male_rewardprob-36_session-plusneu.png,logs/sub-99/anim-neutral_id-1315_gender-male_rewardprob-64_session-plusneu.png,j,,0,0,0,0,,,,,,,,,,,,,0,57,57,86,,,,,,,,,,,,,,j,1,0.633563729999878,,,99,keyboard,2018_okt_04_1813,pilot_RL,29.994014874193727,
logs/sub-99/stims_session-plusneu.csv,logs/sub-99/trials_phase-learning_session-plusneu.csv,win je niks.,dat je niks wint.,(0 euro gewonnen), ,plusneu,eerste,1,learning,,,,,,64_vs_36,logs/sub-99/anim-neutral_id-1318_gender-male_rewardprob-36_session-plusneu.png,logs/sub-99/anim-neutral_id-1315_gender-male_rewardprob-64_session-plusneu.png,j,,0,0,0,0,,,,,,,,,,,,,0,58,58,96,,,,,,,,,,,,,,f,0,0.8335649979999289,,,99,keyboard,2018_okt_04_1813,pilot_RL,29.994014874193727,
logs/sub-99/stims_session-plusneu.csv,logs/sub-99/trials_phase-learning_session-plusneu.csv,win je niks.,dat je niks wint.,(0 euro gewonnen), ,plusneu,eerste,1,learning,,,,,,64_vs_36,logs/sub-99/anim-neutral_id-1315_gender-male_rewardprob-64_session-plusneu.png,logs/sub-99/anim-neutral_id-1318_gender-male_rewardprob-36_session-plusneu.png,f,,0,0,0,0,,,,,,,,,,,,,0,59,59,54,,,,,,,,,,,,,,j,0,0.2002086460015562,,,99,keyboard,2018_okt_04_1813,pilot_RL,29.994014874193727,
logs/sub-99/stims_session-plusneu.csv,logs/sub-99/trials_phase-learning_session-plusneu.csv,win je niks.,dat je niks wint.,(0 euro gewonnen), ,plusneu,eerste,1,learning,,,,,,64_vs_36,logs/sub-99/anim-neutral_id-1318_gender-male_rewardprob-36_session-plusneu.png,logs/sub-99/anim-neutral_id-1315_gender-male_rewardprob-64_session-plusneu.png,j,,0,0,0,0,,,,,,,,,,,,,0,60,60,91,,,,,,,,,,,,,,f,0,1.1335728350022691,,,99,keyboard,2018_okt_04_1813,pilot_RL,29.994014874193727,
logs/sub-99/stims_session-plusneu.csv,logs/sub-99/trials_phase-learning_session-plusneu.csv,win je niks.,dat je niks wint.,(0 euro gewonnen), ,plusneu,eerste,1,learning,,,,,,64_vs_36,logs/sub-99/anim-neutral_id-1315_gender-male_rewardprob-64_session-plusneu.png,logs/sub-99/anim-neutral_id-1318_gender-male_rewardprob-36_session-plusneu.png,j,,0,0,0,0,,,,,,,,,,,,,0,61,61,66,,,,,,,,,,,,,,j,1,0.6335976359987399,,,99,keyboard,2018_okt_04_1813,pilot_RL,29.994014874193727,
logs/sub-99/stims_session-plusneu.csv,logs/sub-99/trials_phase-learning_session-plusneu.csv,win je niks.,dat je niks wint.,(0 euro gewonnen), ,plusneu,eerste,1,learning,,,,,,80_vs_20,logs/sub-99/anim-neutral_id-1266_gender-male_rewardprob-20_session-plusneu.png,logs/sub-99/anim-neutral_id-1280_gender-male_rewardprob-80_session-plusneu.png,j,,0,0,0,0,,,,,,,,,,,,,0,62,62,41,,,,,,,,,,,,,,j,1,0.6669395680000889,,,99,keyboard,2018_okt_04_1813,pilot_RL,29.994014874193727,
logs/sub-99/stims_session-plusneu.csv,logs/sub-99/trials_phase-learning_session-plusneu.csv,win je niks.,dat je niks wint.,(0 euro gewonnen), ,plusneu,eerste,1,learning,,,,,,64_vs_36,logs/sub-99/anim-neutral_id-1318_gender-male_rewardprob-36_session-plusneu.png,logs/sub-99/anim-neutral_id-1315_gender-male_rewardprob-64_session-plusneu.png,j,,0,0,0,0,,,,,,,,,,,,,0,63,63,84,,,,,,,,,,,,,,f,0,0.6336365999995905,,,99,keyboard,2018_okt_04_1813,pilot_RL,29.994014874193727,
logs/sub-99/stims_session-plusneu.csv,logs/sub-99/trials_phase-learning_session-plusneu.csv,win je niks.,dat je niks wint.,(0 euro gewonnen), ,plusneu,eerste,1,learning,,,,,,64_vs_36,logs/sub-99/anim-neutral_id-1315_gender-male_rewardprob-64_session-plusneu.png,logs/sub-99/anim-neutral_id-1318_gender-male_rewardprob-36_session-plusneu.png,f,,0,0,0,0,,,,,,,,,,,,,0,64,64,50,,,,,,,,,,,,,,j,0,0.43353662899971823,,,99,keyboard,2018_okt_04_1813,pilot_RL,29.994014874193727,
logs/sub-99/stims_session-plusneu.csv,logs/sub-99/trials_phase-learning_session-plusneu.csv,win je niks.,dat je niks wint.,(0 euro gewonnen), ,plusneu,eerste,1,learning,,,,,,80_vs_20,logs/sub-99/anim-neutral_id-1266_gender-male_rewardprob-20_session-plusneu.png,logs/sub-99/anim-neutral_id-1280_gender-male_rewardprob-80_session-plusneu.png,j,,0,0,0,0,,,,,,,,,,,,,0,65,65,36,,,,,,,,,,,,,,j,1,0.7335664949969214,,,99,keyboard,2018_okt_04_1813,pilot_RL,29.994014874193727,
logs/sub-99/stims_session-plusneu.csv,logs/sub-99/trials_phase-learning_session-plusneu.csv,win je niks.,dat je niks wint.,(0 euro gewonnen), ,plusneu,eerste,1,learning,,,,,,80_vs_20,logs/sub-99/anim-neutral_id-1266_gender-male_rewardprob-20_session-plusneu.png,logs/sub-99/anim-neutral_id-1280_gender-male_rewardprob-80_session-plusneu.png,f,,0,0,0,0,,,,,,,,,,,,,0,66,66,26,,,,,,,,,,,,,,j,0,0.7003259220000473,,,99,keyboard,2018_okt_04_1813,pilot_RL,29.994014874193727,
logs/sub-99/stims_session-plusneu.csv,logs/sub-99/trials_phase-learning_session-plusneu.csv,win je niks.,dat je niks wint.,(0 euro gewonnen), ,plusneu,eerste,1,learning,,,,,,80_vs_20,logs/sub-99/anim-neutral_id-1280_gender-male_rewardprob-80_session-plusneu.png,logs/sub-99/anim-neutral_id-1266_gender-male_rewardprob-20_session-plusneu.png,j,,0,0,0,0,,,,,,,,,,,,,0,67,67,20,,,,,,,,,,,,,,f,0,0.800306429999182,,,99,keyboard,2018_okt_04_1813,pilot_RL,29.994014874193727,
logs/sub-99/stims_session-plusneu.csv,logs/sub-99/trials_phase-learning_session-plusneu.csv,win je niks.,dat je niks wint.,(0 euro gewonnen), ,plusneu,eerste,1,learning,,,,,,80_vs_20,logs/sub-99/anim-neutral_id-1280_gender-male_rewardprob-80_session-plusneu.png,logs/sub-99/anim-neutral_id-1266_gender-male_rewardprob-20_session-plusneu.png,f,,0,0,0,0,,,,,,,,,,,,,0,68,68,14,,,,,,,,,,,,,,f,1,0.666956327000662,,,99,keyboard,2018_okt_04_1813,pilot_RL,29.994014874193727,
logs/sub-99/stims_session-plusneu.csv,logs/sub-99/trials_phase-learning_session-plusneu.csv,win je niks.,dat je niks wint.,(0 euro gewonnen), ,plusneu,eerste,1,learning,,,,,,64_vs_36,logs/sub-99/anim-neutral_id-1315_gender-male_rewardprob-64_session-plusneu.png,logs/sub-99/anim-neutral_id-1318_gender-male_rewardprob-36_session-plusneu.png,j,,0,0,0,0,,,,,,,,,,,,,0,69,69,74,,,,,,,,,,,,,,j,1,0.800279197999771,,,99,keyboard,2018_okt_04_1813,pilot_RL,29.994014874193727,
logs/sub-99/stims_session-plusneu.csv,logs/sub-99/trials_phase-learning_session-plusneu.csv,win je niks.,dat je niks wint.,(0 euro gewonnen), ,plusneu,eerste,1,learning,,,,,,64_vs_36,logs/sub-99/anim-neutral_id-1315_gender-male_rewardprob-64_session-plusneu.png,logs/sub-99/anim-neutral_id-1318_gender-male_rewardprob-36_session-plusneu.png,j,,0,0,0,0,,,,,,,,,,,,,0,70,70,73,,,,,,,,,,,,,,f,0,0.7336467749992153,,,99,keyboard,2018_okt_04_1813,pilot_RL,29.994014874193727,
logs/sub-99/stims_session-plusneu.csv,logs/sub-99/trials_phase-learning_session-plusneu.csv,win je niks.,dat je niks wint.,(0 euro gewonnen), ,plusneu,eerste,1,learning,,,,,,64_vs_36,logs/sub-99/anim-neutral_id-1318_gender-male_rewardprob-36_session-plusneu.png,logs/sub-99/anim-neutral_id-1315_gender-male_rewardprob-64_session-plusneu.png,f,,0,0,0,0,,,,,,,,,,,,,0,71,71,77,,,,,,,,,,,,,,j,0,0.566919411001436,,,99,keyboard,2018_okt_04_1813,pilot_RL,29.994014874193727,
logs/sub-99/stims_session-plusneu.csv,logs/sub-99/trials_phase-learning_session-plusneu.csv,win je niks.,dat je niks wint.,(0 euro gewonnen), ,plusneu,eerste,1,learning,,,,,,64_vs_36,logs/sub-99/anim-neutral_id-1315_gender-male_rewardprob-64_session-plusneu.png,logs/sub-99/anim-neutral_id-1318_gender-male_rewardprob-36_session-plusneu.png,f,,0,0,0,0,,,,,,,,,,,,,0,72,72,62,,,,,,,,,,,,,,j,0,0.7669687140005408,,,99,keyboard,2018_okt_04_1813,pilot_RL,29.994014874193727,
logs/sub-99/stims_session-plusneu.csv,logs/sub-99/trials_phase-learning_session-plusneu.csv,win je niks.,dat je niks wint.,(0 euro gewonnen), ,plusneu,eerste,1,learning,,,,,,64_vs_36,logs/sub-99/anim-neutral_id-1315_gender-male_rewardprob-64_session-plusneu.png,logs/sub-99/anim-neutral_id-1318_gender-male_rewardprob-36_session-plusneu.png,f,,0,0,0,0,,,,,,,,,,,,,0,73,73,60,,,,,,,,,,,,,,j,0,0.7336387100003776,,,99,keyboard,2018_okt_04_1813,pilot_RL,29.994014874193727,
logs/sub-99/stims_session-plusneu.csv,logs/sub-99/trials_phase-learning_session-plusneu.csv,win je niks.,dat je niks wint.,(0 euro gewonnen), ,plusneu,eerste,1,learning,,,,,,80_vs_20,logs/sub-99/anim-neutral_id-1280_gender-male_rewardprob-80_session-plusneu.png,logs/sub-99/anim-neutral_id-1266_gender-male_rewardprob-20_session-plusneu.png,f,,0,0,0,0,,,,,,,,,,,,,0,74,74,10,,,,,,,,,,,,,,f,1,0.8002360940008657,,,99,keyboard,2018_okt_04_1813,pilot_RL,29.994014874193727,
logs/sub-99/stims_session-plusneu.csv,logs/sub-99/trials_phase-learning_session-plusneu.csv,win je niks.,dat je niks wint.,(0 euro gewonnen), ,plusneu,eerste,1,learning,,,,,,64_vs_36,logs/sub-99/anim-neutral_id-1318_gender-male_rewardprob-36_session-plusneu.png,logs/sub-99/anim-neutral_id-1315_gender-male_rewardprob-64_session-plusneu.png,f,,0,0,0,0,,,,,,,,,,,,,0,75,75,78,,,,,,,,,,,,,,f,1,0.70025729900226,,,99,keyboard,2018_okt_04_1813,pilot_RL,29.994014874193727,
logs/sub-99/stims_session-plusneu.csv,logs/sub-99/trials_phase-learning_session-plusneu.csv,win je niks.,dat je niks wint.,(0 euro gewonnen), ,plusneu,eerste,1,learning,,,,,,80_vs_20,logs/sub-99/anim-neutral_id-1266_gender-male_rewardprob-20_session-plusneu.png,logs/sub-99/anim-neutral_id-1280_gender-male_rewardprob-80_session-plusneu.png,j,,0,0,0,0,,,,,,,,,,,,,0,76,76,48,,,,,,,,,,,,,,j,1,0.5669659910017799,,,99,keyboard,2018_okt_04_1813,pilot_RL,29.994014874193727,
logs/sub-99/stims_session-plusneu.csv,logs/sub-99/trials_phase-learning_session-plusneu.csv,win je niks.,dat je niks wint.,(0 euro gewonnen), ,plusneu,eerste,1,learning,,,,,,64_vs_36,logs/sub-99/anim-neutral_id-1315_gender-male_rewardprob-64_session-plusneu.png,logs/sub-99/anim-neutral_id-1318_gender-male_rewardprob-36_session-plusneu.png,f,,0,0,0,0,,,,,,,,,,,,,0,77,77,52,,,,,,,,,,,,,,j,0,0.4334919680004532,,,99,keyboard,2018_okt_04_1813,pilot_RL,29.994014874193727,
logs/sub-99/stims_session-plusneu.csv,logs/sub-99/trials_phase-learning_session-plusneu.csv,win je niks.,dat je niks wint.,(0 euro gewonnen), ,plusneu,eerste,1,learning,,,,,,80_vs_20,logs/sub-99/anim-neutral_id-1280_gender-male_rewardprob-80_session-plusneu.png,logs/sub-99/anim-neutral_id-1266_gender-male_rewardprob-20_session-plusneu.png,j,,0,0,0,0,,,,,,,,,,,,,0,78,78,23,,,,,,,,,,,,,,f,0,0.2669574920000741,,,99,keyboard,2018_okt_04_1813,pilot_RL,29.994014874193727,
logs/sub-99/stims_session-plusneu.csv,logs/sub-99/trials_phase-learning_session-plusneu.csv,win je niks.,dat je niks wint.,(0 euro gewonnen), ,plusneu,eerste,1,learning,,,,,,80_vs_20,logs/sub-99/anim-neutral_id-1280_gender-male_rewardprob-80_session-plusneu.png,logs/sub-99/anim-neutral_id-1266_gender-male_rewardprob-20_session-plusneu.png,j,,0,0,0,0,,,,,,,,,,,,,0,79,79,24,,,,,,,,,,,,,,f,0,0.5335867339999822,,,99,keyboard,2018_okt_04_1813,pilot_RL,29.994014874193727,
logs/sub-99/stims_session-plusneu.csv,logs/sub-99/trials_phase-learning_session-plusneu.csv,win je niks.,dat je niks wint.,(0 euro gewonnen), ,plusneu,eerste,1,learning,,,,,,80_vs_20,logs/sub-99/anim-neutral_id-1266_gender-male_rewardprob-20_session-plusneu.png,logs/sub-99/anim-neutral_id-1280_gender-male_rewardprob-80_session-plusneu.png,j,,0,0,0,0,,,,,,,,,,,,,0,80,80,34,,,,,,,,,,,,,,j,1,0.5669122489998699,,,99,keyboard,2018_okt_04_1813,pilot_RL,29.994014874193727,
logs/sub-99/stims_session-plusneu.csv,logs/sub-99/trials_phase-learning_session-plusneu.csv,win je niks.,dat je niks wint.,(0 euro gewonnen), ,plusneu,eerste,1,learning,,,,,,80_vs_20,logs/sub-99/anim-neutral_id-1280_gender-male_rewardprob-80_session-plusneu.png,logs/sub-99/anim-neutral_id-1266_gender-male_rewardprob-20_session-plusneu.png,f,,0,0,0,0,,,,,,,,,,,,,0,81,81,13,,,,,,,,,,,,,,f,1,0.2003015010013769,,,99,keyboard,2018_okt_04_1813,pilot_RL,29.994014874193727,
logs/sub-99/stims_session-plusneu.csv,logs/sub-99/trials_phase-learning_session-plusneu.csv,win je niks.,dat je niks wint.,(0 euro gewonnen), ,plusneu,eerste,1,learning,,,,,,80_vs_20,logs/sub-99/anim-neutral_id-1280_gender-male_rewardprob-80_session-plusneu.png,logs/sub-99/anim-neutral_id-1266_gender-male_rewardprob-20_session-plusneu.png,f,,0,0,0,0,,,,,,,,,,,,,0,82,82,18,,,,,,,,,,,,,,j,0,0.26689554800032056,,,99,keyboard,2018_okt_04_1813,pilot_RL,29.994014874193727,
logs/sub-99/stims_session-plusneu.csv,logs/sub-99/trials_phase-learning_session-plusneu.csv,win je niks.,dat je niks wint.,(0 euro gewonnen), ,plusneu,eerste,1,learning,,,,,,80_vs_20,logs/sub-99/anim-neutral_id-1280_gender-male_rewardprob-80_session-plusneu.png,logs/sub-99/anim-neutral_id-1266_gender-male_rewardprob-20_session-plusneu.png,f,,0,0,0,0,,,,,,,,,,,,,0,83,83,5,,,,,,,,,,,,,,f,1,0.8336057550004625,,,99,keyboard,2018_okt_04_1813,pilot_RL,29.994014874193727,
logs/sub-99/stims_session-plusneu.csv,logs/sub-99/trials_phase-learning_session-plusneu.csv,win je niks.,dat je niks wint.,(0 euro gewonnen), ,plusneu,eerste,1,learning,,,,,,80_vs_20,logs/sub-99/anim-neutral_id-1280_gender-male_rewardprob-80_session-plusneu.png,logs/sub-99/anim-neutral_id-1266_gender-male_rewardprob-20_session-plusneu.png,f,,0,0,0,0,,,,,,,,,,,,,0,84,84,11,,,,,,,,,,,,,,j,0,0.600227150000137,,,99,keyboard,2018_okt_04_1813,pilot_RL,29.994014874193727,
logs/sub-99/stims_session-plusneu.csv,logs/sub-99/trials_phase-learning_session-plusneu.csv,win je niks.,dat je niks wint.,(0 euro gewonnen), ,plusneu,eerste,1,learning,,,,,,64_vs_36,logs/sub-99/anim-neutral_id-1315_gender-male_rewardprob-64_session-plusneu.png,logs/sub-99/anim-neutral_id-1318_gender-male_rewardprob-36_session-plusneu.png,j,,0,0,0,0,,,,,,,,,,,,,0,85,85,72,,,,,,,,,,,,,,j,1,0.8335959989999537,,,99,keyboard,2018_okt_04_1813,pilot_RL,29.994014874193727,
logs/sub-99/stims_session-plusneu.csv,logs/sub-99/trials_phase-learning_session-plusneu.csv,win je niks.,dat je niks wint.,(0 euro gewonnen), ,plusneu,eerste,1,learning,,,,,,64_vs_36,logs/sub-99/anim-neutral_id-1315_gender-male_rewardprob-64_session-plusneu.png,logs/sub-99/anim-neutral_id-1318_gender-male_rewardprob-36_session-plusneu.png,f,,0,0,0,0,,,,,,,,,,,,,0,86,86,65,,,,,,,,,,,,,,j,0,0.6335647779997089,,,99,keyboard,2018_okt_04_1813,pilot_RL,29.994014874193727,
logs/sub-99/stims_session-plusneu.csv,logs/sub-99/trials_phase-learning_session-plusneu.csv,win je niks.,dat je niks wint.,(0 euro gewonnen), ,plusneu,eerste,1,learning,,,,,,80_vs_20,logs/sub-99/anim-neutral_id-1266_gender-male_rewardprob-20_session-plusneu.png,logs/sub-99/anim-neutral_id-1280_gender-male_rewardprob-80_session-plusneu.png,f,,0,0,0,0,,,,,,,,,,,,,0,87,87,27,,,,,,,,,,,,,,j,0,0.9670312089983781,,,99,keyboard,2018_okt_04_1813,pilot_RL,29.994014874193727,
logs/sub-99/stims_session-plusneu.csv,logs/sub-99/trials_phase-learning_session-plusneu.csv,win je niks.,dat je niks wint.,(0 euro gewonnen), ,plusneu,eerste,1,learning,,,,,,64_vs_36,logs/sub-99/anim-neutral_id-1318_gender-male_rewardprob-36_session-plusneu.png,logs/sub-99/anim-neutral_id-1315_gender-male_rewardprob-64_session-plusneu.png,f,,0,0,0,0,,,,,,,,,,,,,0,88,88,81,,,,,,,,,,,,,,f,1,0.6667689109999628,,,99,keyboard,2018_okt_04_1813,pilot_RL,29.994014874193727,
logs/sub-99/stims_session-plusneu.csv,logs/sub-99/trials_phase-learning_session-plusneu.csv,win je niks.,dat je niks wint.,(0 euro gewonnen), ,plusneu,eerste,1,learning,,,,,,80_vs_20,logs/sub-99/anim-neutral_id-1266_gender-male_rewardprob-20_session-plusneu.png,logs/sub-99/anim-neutral_id-1280_gender-male_rewardprob-80_session-plusneu.png,f,,0,0,0,0,,,,,,,,,,,,,0,89,89,28,,,,,,,,,,,,,,j,0,0.5335925969993696,,,99,keyboard,2018_okt_04_1813,pilot_RL,29.994014874193727,
logs/sub-99/stims_session-plusneu.csv,logs/sub-99/trials_phase-learning_session-plusneu.csv,win je niks.,dat je niks wint.,(0 euro gewonnen), ,plusneu,eerste,1,learning,,,,,,80_vs_20,logs/sub-99/anim-neutral_id-1280_gender-male_rewardprob-80_session-plusneu.png,logs/sub-99/anim-neutral_id-1266_gender-male_rewardprob-20_session-plusneu.png,f,,0,0,0,0,,,,,,,,,,,,,0,90,90,12,,,,,,,,,,,,,,f,1,0.6335683560027974,,,99,keyboard,2018_okt_04_1813,pilot_RL,29.994014874193727,
logs/sub-99/stims_session-plusneu.csv,logs/sub-99/trials_phase-learning_session-plusneu.csv,win je niks.,dat je niks wint.,(0 euro gewonnen), ,plusneu,eerste,1,learning,,,,,,64_vs_36,logs/sub-99/anim-neutral_id-1318_gender-male_rewardprob-36_session-plusneu.png,logs/sub-99/anim-neutral_id-1315_gender-male_rewardprob-64_session-plusneu.png,j,,0,0,0,0,,,,,,,,,,,,,0,91,91,97,,,,,,,,,,,,,,j,1,0.7336226459992758,,,99,keyboard,2018_okt_04_1813,pilot_RL,29.994014874193727,
logs/sub-99/stims_session-plusneu.csv,logs/sub-99/trials_phase-learning_session-plusneu.csv,win je niks.,dat je niks wint.,(0 euro gewonnen), ,plusneu,eerste,1,learning,,,,,,64_vs_36,logs/sub-99/anim-neutral_id-1315_gender-male_rewardprob-64_session-plusneu.png,logs/sub-99/anim-neutral_id-1318_gender-male_rewardprob-36_session-plusneu.png,f,,0,0,0,0,,,,,,,,,,,,,0,92,92,51,,,,,,,,,,,,,,j,0,0.4336792639987834,,,99,keyboard,2018_okt_04_1813,pilot_RL,29.994014874193727,
logs/sub-99/stims_session-plusneu.csv,logs/sub-99/trials_phase-learning_session-plusneu.csv,win je niks.,dat je niks wint.,(0 euro gewonnen), ,plusneu,eerste,1,learning,,,,,,64_vs_36,logs/sub-99/anim-neutral_id-1318_gender-male_rewardprob-36_session-plusneu.png,logs/sub-99/anim-neutral_id-1315_gender-male_rewardprob-64_session-plusneu.png,j,,0,0,0,0,,,,,,,,,,,,,0,93,93,92,,,,,,,,,,,,,,f,0,0.3669087150010455,,,99,keyboard,2018_okt_04_1813,pilot_RL,29.994014874193727,
logs/sub-99/stims_session-plusneu.csv,logs/sub-99/trials_phase-learning_session-plusneu.csv,win je niks.,dat je niks wint.,(0 euro gewonnen), ,plusneu,eerste,1,learning,,,,,,80_vs_20,logs/sub-99/anim-neutral_id-1280_gender-male_rewardprob-80_session-plusneu.png,logs/sub-99/anim-neutral_id-1266_gender-male_rewardprob-20_session-plusneu.png,j,,0,0,0,0,,,,,,,,,,,,,0,94,94,21,,,,,,,,,,,,,,j,1,0.03347292900070897,,,99,keyboard,2018_okt_04_1813,pilot_RL,29.994014874193727,
logs/sub-99/stims_session-plusneu.csv,logs/sub-99/trials_phase-learning_session-plusneu.csv,win je niks.,dat je niks wint.,(0 euro gewonnen), ,plusneu,eerste,1,learning,,,,,,64_vs_36,logs/sub-99/anim-neutral_id-1318_gender-male_rewardprob-36_session-plusneu.png,logs/sub-99/anim-neutral_id-1315_gender-male_rewardprob-64_session-plusneu.png,j,,0,0,0,0,,,,,,,,,,,,,0,95,95,87,,,,,,,,,,,,,,j,1,0.8002847859970643,,,99,keyboard,2018_okt_04_1813,pilot_RL,29.994014874193727,
logs/sub-99/stims_session-plusneu.csv,logs/sub-99/trials_phase-learning_session-plusneu.csv,win je niks.,dat je niks wint.,(0 euro gewonnen), ,plusneu,eerste,1,learning,,,,,,80_vs_20,logs/sub-99/anim-neutral_id-1266_gender-male_rewardprob-20_session-plusneu.png,logs/sub-99/anim-neutral_id-1280_gender-male_rewardprob-80_session-plusneu.png,j,,0,0,0,0,,,,,,,,,,,,,0,96,96,33,,,,,,,,,,,,,,j,1,0.7003158850020554,,,99,keyboard,2018_okt_04_1813,pilot_RL,29.994014874193727,
logs/sub-99/stims_session-plusneu.csv,logs/sub-99/trials_phase-learning_session-plusneu.csv,win je niks.,dat je niks wint.,(0 euro gewonnen), ,plusneu,eerste,1,learning,,,,,,80_vs_20,logs/sub-99/anim-neutral_id-1266_gender-male_rewardprob-20_session-plusneu.png,logs/sub-99/anim-neutral_id-1280_gender-male_rewardprob-80_session-plusneu.png,f,,0,0,0,0,,,,,,,,,,,,,0,97,97,29,,,,,,,,,,,,,,j,0,0.5668739719985751,,,99,keyboard,2018_okt_04_1813,pilot_RL,29.994014874193727,
logs/sub-99/stims_session-plusneu.csv,logs/sub-99/trials_phase-learning_session-plusneu.csv,win je niks.,dat je niks wint.,(0 euro gewonnen), ,plusneu,eerste,1,learning,,,,,,80_vs_20,logs/sub-99/anim-neutral_id-1280_gender-male_rewardprob-80_session-plusneu.png,logs/sub-99/anim-neutral_id-1266_gender-male_rewardprob-20_session-plusneu.png,f,,0,0,0,0,,,,,,,,,,,,,0,98,98,1,,,,,,,,,,,,,,f,1,0.5002475889996276,,,99,keyboard,2018_okt_04_1813,pilot_RL,29.994014874193727,
logs/sub-99/stims_session-plusneu.csv,logs/sub-99/trials_phase-learning_session-plusneu.csv,win je niks.,dat je niks wint.,(0 euro gewonnen), ,plusneu,eerste,1,learning,,,,,,64_vs_36,logs/sub-99/anim-neutral_id-1318_gender-male_rewardprob-36_session-plusneu.png,logs/sub-99/anim-neutral_id-1315_gender-male_rewardprob-64_session-plusneu.png,f,,0,0,0,0,,,,,,,,,,,,,0,99,99,82,,,,,,,,,,,,,,j,0,0.3335636709998653,,,99,keyboard,2018_okt_04_1813,pilot_RL,29.994014874193727,
logs/sub-99/stims_session-plusneu.csv,logs/sub-99/trials_phase-learning_session-plusneu.csv,win je niks.,dat je niks wint.,(0 euro gewonnen), ,plusneu,eerste,1,pre_rating,dominance,Hoe dominant vind jij dit gezicht?,None,logs/sub-99/anim-neutral_id-1266_gender-male_rewardprob-20_session-plusneu.png,80,,,,,,0,0,0,0,,,,,,,,,,,,,,,,,0,0,0,4,0,0,0,3,,,,,,,,,2,1.968,99,keyboard,2018_okt_04_1813,pilot_RL,29.994014874193727,
logs/sub-99/stims_session-plusneu.csv,logs/sub-99/trials_phase-learning_session-plusneu.csv,win je niks.,dat je niks wint.,(0 euro gewonnen), ,plusneu,eerste,1,pre_rating,dominance,Hoe dominant vind jij dit gezicht?,None,logs/sub-99/anim-neutral_id-1318_gender-male_rewardprob-36_session-plusneu.png,80,,,,,,0,0,0,0,,,,,,,,,,,,,,,,,0,0,0,4,0,1,1,2,,,,,,,,,0,0.834,99,keyboard,2018_okt_04_1813,pilot_RL,29.994014874193727,
logs/sub-99/stims_session-plusneu.csv,logs/sub-99/trials_phase-learning_session-plusneu.csv,win je niks.,dat je niks wint.,(0 euro gewonnen), ,plusneu,eerste,1,pre_rating,dominance,Hoe dominant vind jij dit gezicht?,None,logs/sub-99/anim-neutral_id-1280_gender-male_rewardprob-80_session-plusneu.png,80,,,,,,0,0,0,0,,,,,,,,,,,,,,,,,0,0,0,4,0,2,2,0,,,,,,,,,-1,1.434,99,keyboard,2018_okt_04_1813,pilot_RL,29.994014874193727,
logs/sub-99/stims_session-plusneu.csv,logs/sub-99/trials_phase-learning_session-plusneu.csv,win je niks.,dat je niks wint.,(0 euro gewonnen), ,plusneu,eerste,1,pre_rating,dominance,Hoe dominant vind jij dit gezicht?,None,logs/sub-99/anim-neutral_id-1315_gender-male_rewardprob-64_session-plusneu.png,80,,,,,,0,0,0,0,,,,,,,,,,,,,,,,,0,0,0,4,0,3,3,1,,,,,,,,,-1,1.134,99,keyboard,2018_okt_04_1813,pilot_RL,29.994014874193727,
logs/sub-99/stims_session-plusneu.csv,logs/sub-99/trials_phase-learning_session-plusneu.csv,win je niks.,dat je niks wint.,(0 euro gewonnen), ,plusneu,eerste,1,pre_rating,dominance,Hoe dominant vind jij dit gezicht?,None,,,,,,,,0,0,0,0,,,,,,,,,,,,,,,,,0,0,0,4,,,,,,,,,,,,,,,99,keyboard,2018_okt_04_1813,pilot_RL,29.994014874193727,
logs/sub-99/stims_session-plusneu.csv,logs/sub-99/trials_phase-learning_session-plusneu.csv,win je niks.,dat je niks wint.,(0 euro gewonnen), ,plusneu,eerste,1,pre_rating,trustworthiness,Hoe betrouwbaar vind jij dit gezicht?,None,logs/sub-99/anim-neutral_id-1315_gender-male_rewardprob-64_session-plusneu.png,80,,,,,,0,0,0,0,,,,,,,,,,,,,,,,,0,1,1,3,0,0,0,1,,,,,,,,,0,0.634,99,keyboard,2018_okt_04_1813,pilot_RL,29.994014874193727,
logs/sub-99/stims_session-plusneu.csv,logs/sub-99/trials_phase-learning_session-plusneu.csv,win je niks.,dat je niks wint.,(0 euro gewonnen), ,plusneu,eerste,1,pre_rating,trustworthiness,Hoe betrouwbaar vind jij dit gezicht?,None,logs/sub-99/anim-neutral_id-1280_gender-male_rewardprob-80_session-plusneu.png,80,,,,,,0,0,0,0,,,,,,,,,,,,,,,,,0,1,1,3,0,1,1,0,,,,,,,,,1,0.834,99,keyboard,2018_okt_04_1813,pilot_RL,29.994014874193727,
logs/sub-99/stims_session-plusneu.csv,logs/sub-99/trials_phase-learning_session-plusneu.csv,win je niks.,dat je niks wint.,(0 euro gewonnen), ,plusneu,eerste,1,pre_rating,trustworthiness,Hoe betrouwbaar vind jij dit gezicht?,None,logs/sub-99/anim-neutral_id-1318_gender-male_rewardprob-36_session-plusneu.png,80,,,,,,0,0,0,0,,,,,,,,,,,,,,,,,0,1,1,3,0,2,2,2,,,,,,,,,-1,1.034,99,keyboard,2018_okt_04_1813,pilot_RL,29.994014874193727,
logs/sub-99/stims_session-plusneu.csv,logs/sub-99/trials_phase-learning_session-plusneu.csv,win je niks.,dat je niks wint.,(0 euro gewonnen), ,plusneu,eerste,1,pre_rating,trustworthiness,Hoe betrouwbaar vind jij dit gezicht?,None,logs/sub-99/anim-neutral_id-1266_gender-male_rewardprob-20_session-plusneu.png,80,,,,,,0,0,0,0,,,,,,,,,,,,,,,,,0,1,1,3,0,3,3,3,,,,,,,,,-1,0.634,99,keyboard,2018_okt_04_1813,pilot_RL,29.994014874193727,
logs/sub-99/stims_session-plusneu.csv,logs/sub-99/trials_phase-learning_session-plusneu.csv,win je niks.,dat je niks wint.,(0 euro gewonnen), ,plusneu,eerste,1,pre_rating,trustworthiness,Hoe betrouwbaar vind jij dit gezicht?,None,,,,,,,,0,0,0,0,,,,,,,,,,,,,,,,,0,1,1,3,,,,,,,,,,,,,,,99,keyboard,2018_okt_04_1813,pilot_RL,29.994014874193727,
logs/sub-99/stims_session-plusneu.csv,logs/sub-99/trials_phase-learning_session-plusneu.csv,win je niks.,dat je niks wint.,(0 euro gewonnen), ,plusneu,eerste,1,pre_rating,valence,Hoe prettig vind jij dit gezicht?,None,logs/sub-99/anim-neutral_id-1266_gender-male_rewardprob-20_session-plusneu.png,80,,,,,,0,0,0,0,,,,,,,,,,,,,,,,,0,2,2,0,0,0,0,3,,,,,,,,,0,0.568,99,keyboard,2018_okt_04_1813,pilot_RL,29.994014874193727,
logs/sub-99/stims_session-plusneu.csv,logs/sub-99/trials_phase-learning_session-plusneu.csv,win je niks.,dat je niks wint.,(0 euro gewonnen), ,plusneu,eerste,1,pre_rating,valence,Hoe prettig vind jij dit gezicht?,None,logs/sub-99/anim-neutral_id-1318_gender-male_rewardprob-36_session-plusneu.png,80,,,,,,0,0,0,0,,,,,,,,,,,,,,,,,0,2,2,0,0,1,1,2,,,,,,,,,1,0.634,99,keyboard,2018_okt_04_1813,pilot_RL,29.994014874193727,
logs/sub-99/stims_session-plusneu.csv,logs/sub-99/trials_phase-learning_session-plusneu.csv,win je niks.,dat je niks wint.,(0 euro gewonnen), ,plusneu,eerste,1,pre_rating,valence,Hoe prettig vind jij dit gezicht?,None,logs/sub-99/anim-neutral_id-1315_gender-male_rewardprob-64_session-plusneu.png,80,,,,,,0,0,0,0,,,,,,,,,,,,,,,,,0,2,2,0,0,2,2,1,,,,,,,,,-1,0.834,99,keyboard,2018_okt_04_1813,pilot_RL,29.994014874193727,
logs/sub-99/stims_session-plusneu.csv,logs/sub-99/trials_phase-learning_session-plusneu.csv,win je niks.,dat je niks wint.,(0 euro gewonnen), ,plusneu,eerste,1,pre_rating,valence,Hoe prettig vind jij dit gezicht?,None,logs/sub-99/anim-neutral_id-1280_gender-male_rewardprob-80_session-plusneu.png,80,,,,,,0,0,0,0,,,,,,,,,,,,,,,,,0,2,2,0,0,3,3,0,,,,,,,,,1,0.868,99,keyboard,2018_okt_04_1813,pilot_RL,29.994014874193727,
logs/sub-99/stims_session-plusneu.csv,logs/sub-99/trials_phase-learning_session-plusneu.csv,win je niks.,dat je niks wint.,(0 euro gewonnen), ,plusneu,eerste,1,pre_rating,valence,Hoe prettig vind jij dit gezicht?,None,,,,,,,,0,0,0,0,,,,,,,,,,,,,,,,,0,2,2,0,,,,,,,,,,,,,,,99,keyboard,2018_okt_04_1813,pilot_RL,29.994014874193727,
logs/sub-99/stims_session-plusneu.csv,logs/sub-99/trials_phase-learning_session-plusneu.csv,win je niks.,dat je niks wint.,(0 euro gewonnen), ,plusneu,eerste,1,pre_rating,arousal,Hoe 'emotioneel opwindend' vind jij dit gezicht?,None,logs/sub-99/anim-neutral_id-1315_gender-male_rewardprob-64_session-plusneu.png,80,,,,,,0,0,0,0,,,,,,,,,,,,,,,,,0,3,3,1,0,0,0,1,,,,,,,,,0,0.534,99,keyboard,2018_okt_04_1813,pilot_RL,29.994014874193727,
logs/sub-99/stims_session-plusneu.csv,logs/sub-99/trials_phase-learning_session-plusneu.csv,win je niks.,dat je niks wint.,(0 euro gewonnen), ,plusneu,eerste,1,pre_rating,arousal,Hoe 'emotioneel opwindend' vind jij dit gezicht?,None,logs/sub-99/anim-neutral_id-1280_gender-male_rewardprob-80_session-plusneu.png,80,,,,,,0,0,0,0,,,,,,,,,,,,,,,,,0,3,3,1,0,1,1,0,,,,,,,,,2,1.001,99,keyboard,2018_okt_04_1813,pilot_RL,29.994014874193727,
logs/sub-99/stims_session-plusneu.csv,logs/sub-99/trials_phase-learning_session-plusneu.csv,win je niks.,dat je niks wint.,(0 euro gewonnen), ,plusneu,eerste,1,pre_rating,arousal,Hoe 'emotioneel opwindend' vind jij dit gezicht?,None,logs/sub-99/anim-neutral_id-1318_gender-male_rewardprob-36_session-plusneu.png,80,,,,,,0,0,0,0,,,,,,,,,,,,,,,,,0,3,3,1,0,2,2,2,,,,,,,,,0,0.634,99,keyboard,2018_okt_04_1813,pilot_RL,29.994014874193727,
logs/sub-99/stims_session-plusneu.csv,logs/sub-99/trials_phase-learning_session-plusneu.csv,win je niks.,dat je niks wint.,(0 euro gewonnen), ,plusneu,eerste,1,pre_rating,arousal,Hoe 'emotioneel opwindend' vind jij dit gezicht?,None,logs/sub-99/anim-neutral_id-1266_gender-male_rewardprob-20_session-plusneu.png,80,,,,,,0,0,0,0,,,,,,,,,,,,,,,,,0,3,3,1,0,3,3,3,,,,,,,,,0,0.801,99,keyboard,2018_okt_04_1813,pilot_RL,29.994014874193727,
logs/sub-99/stims_session-plusneu.csv,logs/sub-99/trials_phase-learning_session-plusneu.csv,win je niks.,dat je niks wint.,(0 euro gewonnen), ,plusneu,eerste,1,pre_rating,arousal,Hoe 'emotioneel opwindend' vind jij dit gezicht?,None,,,,,,,,0,0,0,0,,,,,,,,,,,,,,,,,0,3,3,1,,,,,,,,,,,,,,,99,keyboard,2018_okt_04_1813,pilot_RL,29.994014874193727,
logs/sub-99/stims_session-plusneu.csv,logs/sub-99/trials_phase-learning_session-plusneu.csv,win je niks.,dat je niks wint.,(0 euro gewonnen), ,plusneu,eerste,1,pre_rating,attractiveness,Hoe aantrekkelijk vind jij dit gezicht?,None,logs/sub-99/anim-neutral_id-1280_gender-male_rewardprob-80_session-plusneu.png,80,,,,,,0,0,0,0,,,,,,,,,,,,,,,,,0,4,4,2,0,0,0,0,,,,,,,,,1,1.401,99,keyboard,2018_okt_04_1813,pilot_RL,29.994014874193727,
logs/sub-99/stims_session-plusneu.csv,logs/sub-99/trials_phase-learning_session-plusneu.csv,win je niks.,dat je niks wint.,(0 euro gewonnen), ,plusneu,eerste,1,pre_rating,attractiveness,Hoe aantrekkelijk vind jij dit gezicht?,None,logs/sub-99/anim-neutral_id-1318_gender-male_rewardprob-36_session-plusneu.png,80,,,,,,0,0,0,0,,,,,,,,,,,,,,,,,0,4,4,2,0,1,1,2,,,,,,,,,-1,0.768,99,keyboard,2018_okt_04_1813,pilot_RL,29.994014874193727,
logs/sub-99/stims_session-plusneu.csv,logs/sub-99/trials_phase-learning_session-plusneu.csv,win je niks.,dat je niks wint.,(0 euro gewonnen), ,plusneu,eerste,1,pre_rating,attractiveness,Hoe aantrekkelijk vind jij dit gezicht?,None,logs/sub-99/anim-neutral_id-1315_gender-male_rewardprob-64_session-plusneu.png,80,,,,,,0,0,0,0,,,,,,,,,,,,,,,,,0,4,4,2,0,2,2,1,,,,,,,,,1,1.368,99,keyboard,2018_okt_04_1813,pilot_RL,29.994014874193727,
logs/sub-99/stims_session-plusneu.csv,logs/sub-99/trials_phase-learning_session-plusneu.csv,win je niks.,dat je niks wint.,(0 euro gewonnen), ,plusneu,eerste,1,pre_rating,attractiveness,Hoe aantrekkelijk vind jij dit gezicht?,None,logs/sub-99/anim-neutral_id-1266_gender-male_rewardprob-20_session-plusneu.png,80,,,,,,0,0,0,0,,,,,,,,,,,,,,,,,0,4,4,2,0,3,3,3,,,,,,,,,1,0.634,99,keyboard,2018_okt_04_1813,pilot_RL,29.994014874193727,
logs/sub-99/stims_session-plusneu.csv,logs/sub-99/trials_phase-learning_session-plusneu.csv,win je niks.,dat je niks wint.,(0 euro gewonnen), ,plusneu,eerste,1,pre_rating,attractiveness,Hoe aantrekkelijk vind jij dit gezicht?,None,,,,,,,,0,0,0,0,,,,,,,,,,,,,,,,,0,4,4,2,,,,,,,,,,,,,,,99,keyboard,2018_okt_04_1813,pilot_RL,29.994014874193727,
logs/sub-99/stims_session-plusneu.csv,logs/sub-99/trials_phase-learning_session-plusneu.csv,win je niks.,dat je niks wint.,(0 euro gewonnen), ,plusneu,eerste,1,,,,,,,,,,,,0,0,0,0,,,,,,,,,,,,,,,,,,,,,,,,,,,,,,,,,,,99,keyboard,2018_okt_04_1813,pilot_RL,29.994014874193727,
logs/sub-99/stims_session-plusmin.csv,logs/sub-99/trials_phase-learning_session-plusmin.csv,VERLIES je 0.5 euro.,"gestraft wordt, doordat je 0.5 euro verliest.",(0.5 euro verloren),"Let op: in de eerste sessie won je niks als je keus fout was, maar in deze sessie VERLIES je 0.5 euro als je het fout hebt!",plusmin,tweede,0,pre_rating,valence,Hoe prettig vind jij dit gezicht?,None,logs/sub-99/anim-neutral_id-1344_gender-male_rewardprob-64_session-plusmin.png,64,,,,,,0,1,1,1,0,0,0,0,0,0,0,1,,,,,,,,,,,,,,,,,1,14.101,,,,,,,,,99,keyboard,2018_okt_04_1813,pilot_RL,29.994014874193727,
logs/sub-99/stims_session-plusmin.csv,logs/sub-99/trials_phase-learning_session-plusmin.csv,VERLIES je 0.5 euro.,"gestraft wordt, doordat je 0.5 euro verliest.",(0.5 euro verloren),"Let op: in de eerste sessie won je niks als je keus fout was, maar in deze sessie VERLIES je 0.5 euro als je het fout hebt!",plusmin,tweede,0,pre_rating,valence,Hoe prettig vind jij dit gezicht?,None,logs/sub-99/anim-neutral_id-1363_gender-male_rewardprob-80_session-plusmin.png,64,,,,,,0,1,1,1,0,0,0,0,0,1,1,0,,,,,,,,,,,,,,,,,1,1.001,,,,,,,,,99,keyboard,2018_okt_04_1813,pilot_RL,29.994014874193727,
logs/sub-99/stims_session-plusmin.csv,logs/sub-99/trials_phase-learning_session-plusmin.csv,VERLIES je 0.5 euro.,"gestraft wordt, doordat je 0.5 euro verliest.",(0.5 euro verloren),"Let op: in de eerste sessie won je niks als je keus fout was, maar in deze sessie VERLIES je 0.5 euro als je het fout hebt!",plusmin,tweede,0,pre_rating,valence,Hoe prettig vind jij dit gezicht?,None,logs/sub-99/anim-neutral_id-1341_gender-male_rewardprob-20_session-plusmin.png,64,,,,,,0,1,1,1,0,0,0,0,0,2,2,3,,,,,,,,,,,,,,,,,-1,0.868,,,,,,,,,99,keyboard,2018_okt_04_1813,pilot_RL,29.994014874193727,
logs/sub-99/stims_session-plusmin.csv,logs/sub-99/trials_phase-learning_session-plusmin.csv,VERLIES je 0.5 euro.,"gestraft wordt, doordat je 0.5 euro verliest.",(0.5 euro verloren),"Let op: in de eerste sessie won je niks als je keus fout was, maar in deze sessie VERLIES je 0.5 euro als je het fout hebt!",plusmin,tweede,0,pre_rating,valence,Hoe prettig vind jij dit gezicht?,None,logs/sub-99/anim-neutral_id-1342_gender-male_rewardprob-36_session-plusmin.png,64,,,,,,0,1,1,1,0,0,0,0,0,3,3,2,,,,,,,,,,,,,,,,,1,0.701,,,,,,,,,99,keyboard,2018_okt_04_1813,pilot_RL,29.994014874193727,
logs/sub-99/stims_session-plusmin.csv,logs/sub-99/trials_phase-learning_session-plusmin.csv,VERLIES je 0.5 euro.,"gestraft wordt, doordat je 0.5 euro verliest.",(0.5 euro verloren),"Let op: in de eerste sessie won je niks als je keus fout was, maar in deze sessie VERLIES je 0.5 euro als je het fout hebt!",plusmin,tweede,0,pre_rating,dominance,Hoe dominant vind jij dit gezicht?,None,logs/sub-99/anim-neutral_id-1342_gender-male_rewardprob-36_session-plusmin.png,64,,,,,,0,1,1,1,0,1,1,4,0,0,0,2,,,,,,,,,,,,,,,,,-1,0.768,,,,,,,,,99,keyboard,2018_okt_04_1813,pilot_RL,29.994014874193727,
logs/sub-99/stims_session-plusmin.csv,logs/sub-99/trials_phase-learning_session-plusmin.csv,VERLIES je 0.5 euro.,"gestraft wordt, doordat je 0.5 euro verliest.",(0.5 euro verloren),"Let op: in de eerste sessie won je niks als je keus fout was, maar in deze sessie VERLIES je 0.5 euro als je het fout hebt!",plusmin,tweede,0,pre_rating,dominance,Hoe dominant vind jij dit gezicht?,None,logs/sub-99/anim-neutral_id-1341_gender-male_rewardprob-20_session-plusmin.png,64,,,,,,0,1,1,1,0,1,1,4,0,1,1,3,,,,,,,,,,,,,,,,,1,0.634,,,,,,,,,99,keyboard,2018_okt_04_1813,pilot_RL,29.994014874193727,
logs/sub-99/stims_session-plusmin.csv,logs/sub-99/trials_phase-learning_session-plusmin.csv,VERLIES je 0.5 euro.,"gestraft wordt, doordat je 0.5 euro verliest.",(0.5 euro verloren),"Let op: in de eerste sessie won je niks als je keus fout was, maar in deze sessie VERLIES je 0.5 euro als je het fout hebt!",plusmin,tweede,0,pre_rating,dominance,Hoe dominant vind jij dit gezicht?,None,logs/sub-99/anim-neutral_id-1344_gender-male_rewardprob-64_session-plusmin.png,64,,,,,,0,1,1,1,0,1,1,4,0,2,2,1,,,,,,,,,,,,,,,,,2,0.868,,,,,,,,,99,keyboard,2018_okt_04_1813,pilot_RL,29.994014874193727,
logs/sub-99/stims_session-plusmin.csv,logs/sub-99/trials_phase-learning_session-plusmin.csv,VERLIES je 0.5 euro.,"gestraft wordt, doordat je 0.5 euro verliest.",(0.5 euro verloren),"Let op: in de eerste sessie won je niks als je keus fout was, maar in deze sessie VERLIES je 0.5 euro als je het fout hebt!",plusmin,tweede,0,pre_rating,dominance,Hoe dominant vind jij dit gezicht?,None,logs/sub-99/anim-neutral_id-1363_gender-male_rewardprob-80_session-plusmin.png,64,,,,,,0,1,1,1,0,1,1,4,0,3,3,0,,,,,,,,,,,,,,,,,-1,0.801,,,,,,,,,99,keyboard,2018_okt_04_1813,pilot_RL,29.994014874193727,
logs/sub-99/stims_session-plusmin.csv,logs/sub-99/trials_phase-learning_session-plusmin.csv,VERLIES je 0.5 euro.,"gestraft wordt, doordat je 0.5 euro verliest.",(0.5 euro verloren),"Let op: in de eerste sessie won je niks als je keus fout was, maar in deze sessie VERLIES je 0.5 euro als je het fout hebt!",plusmin,tweede,0,pre_rating,attractiveness,Hoe aantrekkelijk vind jij dit gezicht?,None,logs/sub-99/anim-neutral_id-1363_gender-male_rewardprob-80_session-plusmin.png,64,,,,,,0,1,1,1,0,2,2,2,0,0,0,0,,,,,,,,,,,,,,,,,2,1.168,,,,,,,,,99,keyboard,2018_okt_04_1813,pilot_RL,29.994014874193727,
logs/sub-99/stims_session-plusmin.csv,logs/sub-99/trials_phase-learning_session-plusmin.csv,VERLIES je 0.5 euro.,"gestraft wordt, doordat je 0.5 euro verliest.",(0.5 euro verloren),"Let op: in de eerste sessie won je niks als je keus fout was, maar in deze sessie VERLIES je 0.5 euro als je het fout hebt!",plusmin,tweede,0,pre_rating,attractiveness,Hoe aantrekkelijk vind jij dit gezicht?,None,logs/sub-99/anim-neutral_id-1342_gender-male_rewardprob-36_session-plusmin.png,64,,,,,,0,1,1,1,0,2,2,2,0,1,1,2,,,,,,,,,,,,,,,,,1,39.569,,,,,,,,,99,keyboard,2018_okt_04_1813,pilot_RL,29.994014874193727,
logs/sub-99/stims_session-plusmin.csv,logs/sub-99/trials_phase-learning_session-plusmin.csv,VERLIES je 0.5 euro.,"gestraft wordt, doordat je 0.5 euro verliest.",(0.5 euro verloren),"Let op: in de eerste sessie won je niks als je keus fout was, maar in deze sessie VERLIES je 0.5 euro als je het fout hebt!",plusmin,tweede,0,pre_rating,attractiveness,Hoe aantrekkelijk vind jij dit gezicht?,None,logs/sub-99/anim-neutral_id-1344_gender-male_rewardprob-64_session-plusmin.png,64,,,,,,0,1,1,1,0,2,2,2,0,2,2,1,,,,,,,,,,,,,,,,,-2,0.701,,,,,,,,,99,keyboard,2018_okt_04_1813,pilot_RL,29.994014874193727,
logs/sub-99/stims_session-plusmin.csv,logs/sub-99/trials_phase-learning_session-plusmin.csv,VERLIES je 0.5 euro.,"gestraft wordt, doordat je 0.5 euro verliest.",(0.5 euro verloren),"Let op: in de eerste sessie won je niks als je keus fout was, maar in deze sessie VERLIES je 0.5 euro als je het fout hebt!",plusmin,tweede,0,pre_rating,attractiveness,Hoe aantrekkelijk vind jij dit gezicht?,None,logs/sub-99/anim-neutral_id-1341_gender-male_rewardprob-20_session-plusmin.png,64,,,,,,0,1,1,1,0,2,2,2,0,3,3,3,,,,,,,,,,,,,,,,,0,0.601,,,,,,,,,99,keyboard,2018_okt_04_1813,pilot_RL,29.994014874193727,
logs/sub-99/stims_session-plusmin.csv,logs/sub-99/trials_phase-learning_session-plusmin.csv,VERLIES je 0.5 euro.,"gestraft wordt, doordat je 0.5 euro verliest.",(0.5 euro verloren),"Let op: in de eerste sessie won je niks als je keus fout was, maar in deze sessie VERLIES je 0.5 euro als je het fout hebt!",plusmin,tweede,0,pre_rating,trustworthiness,Hoe betrouwbaar vind jij dit gezicht?,None,logs/sub-99/anim-neutral_id-1344_gender-male_rewardprob-64_session-plusmin.png,64,,,,,,0,1,1,1,0,3,3,3,0,0,0,1,,,,,,,,,,,,,,,,,-2,0.768,,,,,,,,,99,keyboard,2018_okt_04_1813,pilot_RL,29.994014874193727,
logs/sub-99/stims_session-plusmin.csv,logs/sub-99/trials_phase-learning_session-plusmin.csv,VERLIES je 0.5 euro.,"gestraft wordt, doordat je 0.5 euro verliest.",(0.5 euro verloren),"Let op: in de eerste sessie won je niks als je keus fout was, maar in deze sessie VERLIES je 0.5 euro als je het fout hebt!",plusmin,tweede,0,pre_rating,trustworthiness,Hoe betrouwbaar vind jij dit gezicht?,None,logs/sub-99/anim-neutral_id-1342_gender-male_rewardprob-36_session-plusmin.png,64,,,,,,0,1,1,1,0,3,3,3,0,1,1,2,,,,,,,,,,,,,,,,,2,0.868,,,,,,,,,99,keyboard,2018_okt_04_1813,pilot_RL,29.994014874193727,
logs/sub-99/stims_session-plusmin.csv,logs/sub-99/trials_phase-learning_session-plusmin.csv,VERLIES je 0.5 euro.,"gestraft wordt, doordat je 0.5 euro verliest.",(0.5 euro verloren),"Let op: in de eerste sessie won je niks als je keus fout was, maar in deze sessie VERLIES je 0.5 euro als je het fout hebt!",plusmin,tweede,0,pre_rating,trustworthiness,Hoe betrouwbaar vind jij dit gezicht?,None,logs/sub-99/anim-neutral_id-1341_gender-male_rewardprob-20_session-plusmin.png,64,,,,,,0,1,1,1,0,3,3,3,0,2,2,3,,,,,,,,,,,,,,,,,-2,0.968,,,,,,,,,99,keyboard,2018_okt_04_1813,pilot_RL,29.994014874193727,
logs/sub-99/stims_session-plusmin.csv,logs/sub-99/trials_phase-learning_session-plusmin.csv,VERLIES je 0.5 euro.,"gestraft wordt, doordat je 0.5 euro verliest.",(0.5 euro verloren),"Let op: in de eerste sessie won je niks als je keus fout was, maar in deze sessie VERLIES je 0.5 euro als je het fout hebt!",plusmin,tweede,0,pre_rating,trustworthiness,Hoe betrouwbaar vind jij dit gezicht?,None,logs/sub-99/anim-neutral_id-1363_gender-male_rewardprob-80_session-plusmin.png,64,,,,,,0,1,1,1,0,3,3,3,0,3,3,0,,,,,,,,,,,,,,,,,2,0.868,,,,,,,,,99,keyboard,2018_okt_04_1813,pilot_RL,29.994014874193727,
logs/sub-99/stims_session-plusmin.csv,logs/sub-99/trials_phase-learning_session-plusmin.csv,VERLIES je 0.5 euro.,"gestraft wordt, doordat je 0.5 euro verliest.",(0.5 euro verloren),"Let op: in de eerste sessie won je niks als je keus fout was, maar in deze sessie VERLIES je 0.5 euro als je het fout hebt!",plusmin,tweede,0,pre_rating,arousal,Hoe 'emotioneel opwindend' vind jij dit gezicht?,None,logs/sub-99/anim-neutral_id-1342_gender-male_rewardprob-36_session-plusmin.png,64,,,,,,0,1,1,1,0,4,4,1,0,0,0,2,,,,,,,,,,,,,,,,,2,1.068,,,,,,,,,99,keyboard,2018_okt_04_1813,pilot_RL,29.994014874193727,
logs/sub-99/stims_session-plusmin.csv,logs/sub-99/trials_phase-learning_session-plusmin.csv,VERLIES je 0.5 euro.,"gestraft wordt, doordat je 0.5 euro verliest.",(0.5 euro verloren),"Let op: in de eerste sessie won je niks als je keus fout was, maar in deze sessie VERLIES je 0.5 euro als je het fout hebt!",plusmin,tweede,0,pre_rating,arousal,Hoe 'emotioneel opwindend' vind jij dit gezicht?,None,logs/sub-99/anim-neutral_id-1341_gender-male_rewardprob-20_session-plusmin.png,64,,,,,,0,1,1,1,0,4,4,1,0,1,1,3,,,,,,,,,,,,,,,,,4,1.534,,,,,,,,,99,keyboard,2018_okt_04_1813,pilot_RL,29.994014874193727,
logs/sub-99/stims_session-plusmin.csv,logs/sub-99/trials_phase-learning_session-plusmin.csv,VERLIES je 0.5 euro.,"gestraft wordt, doordat je 0.5 euro verliest.",(0.5 euro verloren),"Let op: in de eerste sessie won je niks als je keus fout was, maar in deze sessie VERLIES je 0.5 euro als je het fout hebt!",plusmin,tweede,0,pre_rating,arousal,Hoe 'emotioneel opwindend' vind jij dit gezicht?,None,logs/sub-99/anim-neutral_id-1363_gender-male_rewardprob-80_session-plusmin.png,64,,,,,,0,1,1,1,0,4,4,1,0,2,2,0,,,,,,,,,,,,,,,,,4,1.368,,,,,,,,,99,keyboard,2018_okt_04_1813,pilot_RL,29.994014874193727,
logs/sub-99/stims_session-plusmin.csv,logs/sub-99/trials_phase-learning_session-plusmin.csv,VERLIES je 0.5 euro.,"gestraft wordt, doordat je 0.5 euro verliest.",(0.5 euro verloren),"Let op: in de eerste sessie won je niks als je keus fout was, maar in deze sessie VERLIES je 0.5 euro als je het fout hebt!",plusmin,tweede,0,pre_rating,arousal,Hoe 'emotioneel opwindend' vind jij dit gezicht?,None,logs/sub-99/anim-neutral_id-1344_gender-male_rewardprob-64_session-plusmin.png,64,,,,,,0,1,1,1,0,4,4,1,0,3,3,1,,,,,,,,,,,,,,,,,4,1.168,,,,,,,,,99,keyboard,2018_okt_04_1813,pilot_RL,29.994014874193727,
logs/sub-99/stims_session-plusmin.csv,logs/sub-99/trials_phase-learning_session-plusmin.csv,VERLIES je 0.5 euro.,"gestraft wordt, doordat je 0.5 euro verliest.",(0.5 euro verloren),"Let op: in de eerste sessie won je niks als je keus fout was, maar in deze sessie VERLIES je 0.5 euro als je het fout hebt!",plusmin,tweede,0,learning,,,,,,80_vs_20,logs/sub-99/anim-neutral_id-1341_gender-male_rewardprob-20_session-plusmin.png,logs/sub-99/anim-neutral_id-1363_gender-male_rewardprob-80_session-plusmin.png,j,,0,1,1,1,,,,,,,,,,,,,0,0,0,37,,,,,,,,,,,,,,f,0,1.4002627289992233,,,99,keyboard,2018_okt_04_1813,pilot_RL,29.994014874193727,
logs/sub-99/stims_session-plusmin.csv,logs/sub-99/trials_phase-learning_session-plusmin.csv,VERLIES je 0.5 euro.,"gestraft wordt, doordat je 0.5 euro verliest.",(0.5 euro verloren),"Let op: in de eerste sessie won je niks als je keus fout was, maar in deze sessie VERLIES je 0.5 euro als je het fout hebt!",plusmin,tweede,0,learning,,,,,,80_vs_20,logs/sub-99/anim-neutral_id-1363_gender-male_rewardprob-80_session-plusmin.png,logs/sub-99/anim-neutral_id-1341_gender-male_rewardprob-20_session-plusmin.png,f,,0,1,1,1,,,,,,,,,,,,,0,1,1,11,,,,,,,,,,,,,,j,0,1.0002755929999694,,,99,keyboard,2018_okt_04_1813,pilot_RL,29.994014874193727,
logs/sub-99/stims_session-plusmin.csv,logs/sub-99/trials_phase-learning_session-plusmin.csv,VERLIES je 0.5 euro.,"gestraft wordt, doordat je 0.5 euro verliest.",(0.5 euro verloren),"Let op: in de eerste sessie won je niks als je keus fout was, maar in deze sessie VERLIES je 0.5 euro als je het fout hebt!",plusmin,tweede,0,learning,,,,,,80_vs_20,logs/sub-99/anim-neutral_id-1363_gender-male_rewardprob-80_session-plusmin.png,logs/sub-99/anim-neutral_id-1341_gender-male_rewardprob-20_session-plusmin.png,f,,0,1,1,1,,,,,,,,,,,,,0,2,2,14,,,,,,,,,,,,,,j,0,0.8003521989994624,,,99,keyboard,2018_okt_04_1813,pilot_RL,29.994014874193727,
logs/sub-99/stims_session-plusmin.csv,logs/sub-99/trials_phase-learning_session-plusmin.csv,VERLIES je 0.5 euro.,"gestraft wordt, doordat je 0.5 euro verliest.",(0.5 euro verloren),"Let op: in de eerste sessie won je niks als je keus fout was, maar in deze sessie VERLIES je 0.5 euro als je het fout hebt!",plusmin,tweede,0,learning,,,,,,64_vs_36,logs/sub-99/anim-neutral_id-1344_gender-male_rewardprob-64_session-plusmin.png,logs/sub-99/anim-neutral_id-1342_gender-male_rewardprob-36_session-plusmin.png,f,,0,1,1,1,,,,,,,,,,,,,0,3,3,61,,,,,,,,,,,,,,f,1,0.733566069000517,,,99,keyboard,2018_okt_04_1813,pilot_RL,29.994014874193727,
logs/sub-99/stims_session-plusmin.csv,logs/sub-99/trials_phase-learning_session-plusmin.csv,VERLIES je 0.5 euro.,"gestraft wordt, doordat je 0.5 euro verliest.",(0.5 euro verloren),"Let op: in de eerste sessie won je niks als je keus fout was, maar in deze sessie VERLIES je 0.5 euro als je het fout hebt!",plusmin,tweede,0,learning,,,,,,64_vs_36,logs/sub-99/anim-neutral_id-1342_gender-male_rewardprob-36_session-plusmin.png,logs/sub-99/anim-neutral_id-1344_gender-male_rewardprob-64_session-plusmin.png,f,,0,1,1,1,,,,,,,,,,,,,0,4,4,81,,,,,,,,,,,,,,j,0,0.23364782200224,,,99,keyboard,2018_okt_04_1813,pilot_RL,29.994014874193727,
logs/sub-99/stims_session-plusmin.csv,logs/sub-99/trials_phase-learning_session-plusmin.csv,VERLIES je 0.5 euro.,"gestraft wordt, doordat je 0.5 euro verliest.",(0.5 euro verloren),"Let op: in de eerste sessie won je niks als je keus fout was, maar in deze sessie VERLIES je 0.5 euro als je het fout hebt!",plusmin,tweede,0,learning,,,,,,80_vs_20,logs/sub-99/anim-neutral_id-1363_gender-male_rewardprob-80_session-plusmin.png,logs/sub-99/anim-neutral_id-1341_gender-male_rewardprob-20_session-plusmin.png,j,,0,1,1,1,,,,,,,,,,,,,0,5,5,22,,,,,,,,,,,,,,f,0,0.2670142440001655,,,99,keyboard,2018_okt_04_1813,pilot_RL,29.994014874193727,
logs/sub-99/stims_session-plusmin.csv,logs/sub-99/trials_phase-learning_session-plusmin.csv,VERLIES je 0.5 euro.,"gestraft wordt, doordat je 0.5 euro verliest.",(0.5 euro verloren),"Let op: in de eerste sessie won je niks als je keus fout was, maar in deze sessie VERLIES je 0.5 euro als je het fout hebt!",plusmin,tweede,0,learning,,,,,,80_vs_20,logs/sub-99/anim-neutral_id-1341_gender-male_rewardprob-20_session-plusmin.png,logs/sub-99/anim-neutral_id-1363_gender-male_rewardprob-80_session-plusmin.png,f,,0,1,1,1,,,,,,,,,,,,,0,6,6,29,,,,,,,,,,,,,,j,0,0.2668931119987974,,,99,keyboard,2018_okt_04_1813,pilot_RL,29.994014874193727,
logs/sub-99/stims_session-plusmin.csv,logs/sub-99/trials_phase-learning_session-plusmin.csv,VERLIES je 0.5 euro.,"gestraft wordt, doordat je 0.5 euro verliest.",(0.5 euro verloren),"Let op: in de eerste sessie won je niks als je keus fout was, maar in deze sessie VERLIES je 0.5 euro als je het fout hebt!",plusmin,tweede,0,learning,,,,,,80_vs_20,logs/sub-99/anim-neutral_id-1341_gender-male_rewardprob-20_session-plusmin.png,logs/sub-99/anim-neutral_id-1363_gender-male_rewardprob-80_session-plusmin.png,j,,0,1,1,1,,,,,,,,,,,,,0,7,7,36,,,,,,,,,,,,,,f,0,1.1336287509984686,,,99,keyboard,2018_okt_04_1813,pilot_RL,29.994014874193727,
logs/sub-99/stims_session-plusmin.csv,logs/sub-99/trials_phase-learning_session-plusmin.csv,VERLIES je 0.5 euro.,"gestraft wordt, doordat je 0.5 euro verliest.",(0.5 euro verloren),"Let op: in de eerste sessie won je niks als je keus fout was, maar in deze sessie VERLIES je 0.5 euro als je het fout hebt!",plusmin,tweede,0,learning,,,,,,80_vs_20,logs/sub-99/anim-neutral_id-1363_gender-male_rewardprob-80_session-plusmin.png,logs/sub-99/anim-neutral_id-1341_gender-male_rewardprob-20_session-plusmin.png,f,,0,1,1,1,,,,,,,,,,,,,0,8,8,4,,,,,,,,,,,,,,f,1,0.8336271269981808,,,99,keyboard,2018_okt_04_1813,pilot_RL,29.994014874193727,
logs/sub-99/stims_session-plusmin.csv,logs/sub-99/trials_phase-learning_session-plusmin.csv,VERLIES je 0.5 euro.,"gestraft wordt, doordat je 0.5 euro verliest.",(0.5 euro verloren),"Let op: in de eerste sessie won je niks als je keus fout was, maar in deze sessie VERLIES je 0.5 euro als je het fout hebt!",plusmin,tweede,0,learning,,,,,,64_vs_36,logs/sub-99/anim-neutral_id-1344_gender-male_rewardprob-64_session-plusmin.png,logs/sub-99/anim-neutral_id-1342_gender-male_rewardprob-36_session-plusmin.png,f,,0,1,1,1,,,,,,,,,,,,,0,9,9,59,,,,,,,,,,,,,,f,1,1.0670412289982778,,,99,keyboard,2018_okt_04_1813,pilot_RL,29.994014874193727,
logs/sub-99/stims_session-plusmin.csv,logs/sub-99/trials_phase-learning_session-plusmin.csv,VERLIES je 0.5 euro.,"gestraft wordt, doordat je 0.5 euro verliest.",(0.5 euro verloren),"Let op: in de eerste sessie won je niks als je keus fout was, maar in deze sessie VERLIES je 0.5 euro als je het fout hebt!",plusmin,tweede,0,learning,,,,,,64_vs_36,logs/sub-99/anim-neutral_id-1344_gender-male_rewardprob-64_session-plusmin.png,logs/sub-99/anim-neutral_id-1342_gender-male_rewardprob-36_session-plusmin.png,f,,0,1,1,1,,,,,,,,,,,,,0,10,10,65,,,,,,,,,,,,,,f,1,0.6336237299983623,,,99,keyboard,2018_okt_04_1813,pilot_RL,29.994014874193727,
logs/sub-99/stims_session-plusmin.csv,logs/sub-99/trials_phase-learning_session-plusmin.csv,VERLIES je 0.5 euro.,"gestraft wordt, doordat je 0.5 euro verliest.",(0.5 euro verloren),"Let op: in de eerste sessie won je niks als je keus fout was, maar in deze sessie VERLIES je 0.5 euro als je het fout hebt!",plusmin,tweede,0,learning,,,,,,64_vs_36,logs/sub-99/anim-neutral_id-1344_gender-male_rewardprob-64_session-plusmin.png,logs/sub-99/anim-neutral_id-1342_gender-male_rewardprob-36_session-plusmin.png,f,,0,1,1,1,,,,,,,,,,,,,0,11,11,56,,,,,,,,,,,,,,f,1,1.2336174999982177,,,99,keyboard,2018_okt_04_1813,pilot_RL,29.994014874193727,
logs/sub-99/stims_session-plusmin.csv,logs/sub-99/trials_phase-learning_session-plusmin.csv,VERLIES je 0.5 euro.,"gestraft wordt, doordat je 0.5 euro verliest.",(0.5 euro verloren),"Let op: in de eerste sessie won je niks als je keus fout was, maar in deze sessie VERLIES je 0.5 euro als je het fout hebt!",plusmin,tweede,0,learning,,,,,,64_vs_36,logs/sub-99/anim-neutral_id-1342_gender-male_rewardprob-36_session-plusmin.png,logs/sub-99/anim-neutral_id-1344_gender-male_rewardprob-64_session-plusmin.png,j,,0,1,1,1,,,,,,,,,,,,,0,12,12,93,,,,,,,,,,,,,,j,1,0.6336453360017913,,,99,keyboard,2018_okt_04_1813,pilot_RL,29.994014874193727,
logs/sub-99/stims_session-plusmin.csv,logs/sub-99/trials_phase-learning_session-plusmin.csv,VERLIES je 0.5 euro.,"gestraft wordt, doordat je 0.5 euro verliest.",(0.5 euro verloren),"Let op: in de eerste sessie won je niks als je keus fout was, maar in deze sessie VERLIES je 0.5 euro als je het fout hebt!",plusmin,tweede,0,learning,,,,,,80_vs_20,logs/sub-99/anim-neutral_id-1341_gender-male_rewardprob-20_session-plusmin.png,logs/sub-99/anim-neutral_id-1363_gender-male_rewardprob-80_session-plusmin.png,j,,0,1,1,1,,,,,,,,,,,,,0,13,13,31,,,,,,,,,,,,,,j,1,1.0669342769979266,,,99,keyboard,2018_okt_04_1813,pilot_RL,29.994014874193727,
logs/sub-99/stims_session-plusmin.csv,logs/sub-99/trials_phase-learning_session-plusmin.csv,VERLIES je 0.5 euro.,"gestraft wordt, doordat je 0.5 euro verliest.",(0.5 euro verloren),"Let op: in de eerste sessie won je niks als je keus fout was, maar in deze sessie VERLIES je 0.5 euro als je het fout hebt!",plusmin,tweede,0,learning,,,,,,64_vs_36,logs/sub-99/anim-neutral_id-1344_gender-male_rewardprob-64_session-plusmin.png,logs/sub-99/anim-neutral_id-1342_gender-male_rewardprob-36_session-plusmin.png,j,,0,1,1,1,,,,,,,,,,,,,0,14,14,66,,,,,,,,,,,,,,f,0,0.8004589259981003,,,99,keyboard,2018_okt_04_1813,pilot_RL,29.994014874193727,
logs/sub-99/stims_session-plusmin.csv,logs/sub-99/trials_phase-learning_session-plusmin.csv,VERLIES je 0.5 euro.,"gestraft wordt, doordat je 0.5 euro verliest.",(0.5 euro verloren),"Let op: in de eerste sessie won je niks als je keus fout was, maar in deze sessie VERLIES je 0.5 euro als je het fout hebt!",plusmin,tweede,0,learning,,,,,,64_vs_36,logs/sub-99/anim-neutral_id-1344_gender-male_rewardprob-64_session-plusmin.png,logs/sub-99/anim-neutral_id-1342_gender-male_rewardprob-36_session-plusmin.png,j,,0,1,1,1,,,,,,,,,,,,,0,15,15,72,,,,,,,,,,,,,,f,0,0.6335300220016507,,,99,keyboard,2018_okt_04_1813,pilot_RL,29.994014874193727,
logs/sub-99/stims_session-plusmin.csv,logs/sub-99/trials_phase-learning_session-plusmin.csv,VERLIES je 0.5 euro.,"gestraft wordt, doordat je 0.5 euro verliest.",(0.5 euro verloren),"Let op: in de eerste sessie won je niks als je keus fout was, maar in deze sessie VERLIES je 0.5 euro als je het fout hebt!",plusmin,tweede,0,learning,,,,,,80_vs_20,logs/sub-99/anim-neutral_id-1363_gender-male_rewardprob-80_session-plusmin.png,logs/sub-99/anim-neutral_id-1341_gender-male_rewardprob-20_session-plusmin.png,f,,0,1,1,1,,,,,,,,,,,,,0,16,16,1,,,,,,,,,,,,,,j,0,0.5668969930011372,,,99,keyboard,2018_okt_04_1813,pilot_RL,29.994014874193727,
logs/sub-99/stims_session-plusmin.csv,logs/sub-99/trials_phase-learning_session-plusmin.csv,VERLIES je 0.5 euro.,"gestraft wordt, doordat je 0.5 euro verliest.",(0.5 euro verloren),"Let op: in de eerste sessie won je niks als je keus fout was, maar in deze sessie VERLIES je 0.5 euro als je het fout hebt!",plusmin,tweede,0,learning,,,,,,64_vs_36,logs/sub-99/anim-neutral_id-1342_gender-male_rewardprob-36_session-plusmin.png,logs/sub-99/anim-neutral_id-1344_gender-male_rewardprob-64_session-plusmin.png,j,,0,1,1,1,,,,,,,,,,,,,0,17,17,87,,,,,,,,,,,,,,j,1,0.8669052810000721,,,99,keyboard,2018_okt_04_1813,pilot_RL,29.994014874193727,
logs/sub-99/stims_session-plusmin.csv,logs/sub-99/trials_phase-learning_session-plusmin.csv,VERLIES je 0.5 euro.,"gestraft wordt, doordat je 0.5 euro verliest.",(0.5 euro verloren),"Let op: in de eerste sessie won je niks als je keus fout was, maar in deze sessie VERLIES je 0.5 euro als je het fout hebt!",plusmin,tweede,0,learning,,,,,,80_vs_20,logs/sub-99/anim-neutral_id-1341_gender-male_rewardprob-20_session-plusmin.png,logs/sub-99/anim-neutral_id-1363_gender-male_rewardprob-80_session-plusmin.png,j,,0,1,1,1,,,,,,,,,,,,,0,18,18,42,,,,,,,,,,,,,,j,1,0.6335091670007387,,,99,keyboard,2018_okt_04_1813,pilot_RL,29.994014874193727,
logs/sub-99/stims_session-plusmin.csv,logs/sub-99/trials_phase-learning_session-plusmin.csv,VERLIES je 0.5 euro.,"gestraft wordt, doordat je 0.5 euro verliest.",(0.5 euro verloren),"Let op: in de eerste sessie won je niks als je keus fout was, maar in deze sessie VERLIES je 0.5 euro als je het fout hebt!",plusmin,tweede,0,learning,,,,,,64_vs_36,logs/sub-99/anim-neutral_id-1342_gender-male_rewardprob-36_session-plusmin.png,logs/sub-99/anim-neutral_id-1344_gender-male_rewardprob-64_session-plusmin.png,j,,0,1,1,1,,,,,,,,,,,,,0,19,19,88,,,,,,,,,,,,,,f,0,0.8336474380012078,,,99,keyboard,2018_okt_04_1813,pilot_RL,29.994014874193727,
